ALV-7004 CGS-8F Data, Single Run Data
Date :	"11.05.2021"
Time :	"09:22:27"
Samplename : 	"092 2021 Toluol"
SampMemo(0) : 	"Toluol-Messung "
SampMemo(1) : 	""
SampMemo(2) : 	""
SampMemo(3) : 	""
SampMemo(4) : 	""
SampMemo(5) : 	""
SampMemo(6) : 	""
SampMemo(7) : 	""
SampMemo(8) : 	""
SampMemo(9) : 	""
Temperature [K] :	     292.94403
Viscosity [cp]  :	       1.00682
Refractive Index:	       1.33200
Wavelength [nm] :	     632.80000
Angle(1)[°]     :	      26.00000
Angle(2)[°]     :	      42.00000
Angle(3)[°]     :	      58.00000
Angle(4)[°]     :	      74.00000
Angle(5)[°]     :	      90.00000
Angle(6)[°]     :	     106.00000
Angle(7)[°]     :	     122.00000
Angle(8)[°]     :	     138.00000
Duration [s]    :	          30.0
Runs            :	         1
Mode            :	"8 x AUTO, 100 ns STC"
MeanCR1 [kHz]   :	      32.19791
MeanCR2 [kHz]   :	      24.23757
MeanCR3 [kHz]   :	      22.33298
MeanCR4 [kHz]   :	      18.42479
MeanCR5 [kHz]   :	      18.56454
MeanCR6 [kHz]   :	      24.03723
MeanCR7 [kHz]   :	      29.37397
MeanCR8 [kHz]   :	      43.73744
Atten[1]        :	       1.00000
Atten[2]        :	       1.00000
Atten[3]        :	       1.00000
RelSens[1]      :	       1.00000
RelSens[2]      :	       1.00000
RelSens[3]      :	       1.00000
RelSens[4]      :	       1.00000
RelSens[5]      :	       1.00000
RelSens[6]      :	       1.00000
RelSens[7]      :	       1.00000
RelSens[8]      :	       1.00000
DC[1][kHz]      :	       0.00000
DC[2][kHz]      :	       0.00000
DC[3][kHz]      :	       0.00000
DC[4][kHz]      :	       0.00000
DC[5][kHz]      :	       0.00000
DC[6][kHz]      :	       0.00000
DC[7][kHz]      :	       0.00000
DC[8][kHz]      :	       0.00000

"Correlation"
  1.00000E-004	 -1.28222E-001	  1.35720E-001	 -7.76197E-002	  4.68707E-002	  4.29208E-002	  3.02689E-001	  2.27332E-001	 -5.62896E-002
  2.00000E-004	  5.31933E-002	  1.03837E-001	  3.62170E-002	  5.02570E-002	  1.13398E-001	  1.18835E-001	  1.12957E-001	  7.07607E-002
  3.00000E-004	  1.53676E-002	  4.18097E-002	  2.36646E-002	 -5.13423E-003	 -1.15950E-002	  2.47356E-002	  7.59196E-002	  1.60808E-002
  4.00000E-004	  6.69555E-003	  2.40323E-002	  1.58983E-003	  1.90541E-002	 -1.20861E-002	 -1.97237E-002	  8.37308E-003	  4.04455E-002
  5.00000E-004	  1.14455E-002	  4.88626E-002	 -3.27488E-002	  2.31661E-002	 -5.84982E-002	  2.84023E-003	 -1.51831E-002	  3.57012E-002
  6.00000E-004	  1.13584E-002	  5.54664E-004	 -9.37544E-003	 -9.73002E-003	 -2.75568E-002	  2.55713E-002	  8.08927E-003	  1.27035E-002
  7.00000E-004	 -6.50859E-003	  2.81868E-002	  5.91821E-003	 -2.61781E-002	  1.41895E-002	  1.92200E-002	 -1.34802E-002	  1.23819E-002
  8.00000E-004	  1.64134E-002	  1.17621E-002	  1.46998E-004	 -7.31122E-003	  3.62905E-002	  2.84021E-003	  9.79210E-003	  5.91814E-002
  9.00000E-004	 -6.07284E-003	  1.94914E-002	 -1.19725E-002	  4.39680E-002	 -4.22908E-002	  4.56281E-002	 -5.53359E-003	  3.85821E-003
  1.00000E-003	  3.36703E-002	  2.87665E-002	  7.64954E-003	 -3.05320E-002	  3.72727E-002	  2.49027E-002	 -3.26311E-003	 -5.79118E-003
  1.10000E-003	  3.34001E-003	  3.26311E-002	 -1.71666E-002	  4.78382E-002	 -2.06809E-002	 -4.51395E-003	  3.93082E-002	  1.02911E-002
  1.20000E-003	  3.34001E-003	 -2.34061E-002	  1.63063E-002	  2.94550E-002	 -6.92923E-003	 -1.52109E-002	  1.49007E-002	 -2.63765E-002
  1.30000E-003	  5.95469E-003	 -6.78817E-003	  1.80377E-002	  1.39745E-002	 -1.28228E-002	 -1.85537E-002	  9.79210E-003	 -1.73705E-002
  1.40000E-003	 -1.70545E-002	  4.03281E-003	  7.64954E-003	 -1.40839E-002	  7.80476E-003	  1.01944E-002	 -4.12935E-002	 -1.99436E-002
  1.50000E-003	  2.21657E-002	  2.52883E-002	  5.34107E-003	  3.23576E-002	  1.17338E-002	  1.68800E-002	  1.42593E-004	  1.51158E-002
  1.60000E-003	 -5.82060E-004	 -2.15066E-003	  2.95800E-002	 -3.92491E-003	 -1.03569E-003	  1.42057E-002	 -6.66887E-003	  2.65342E-002
  1.80000E-003	 -4.76555E-003	  1.65928E-002	  1.46945E-004	  1.68771E-002	  4.36678E-003	 -1.25367E-002	  4.68348E-003	 -9.49017E-003
  2.00000E-003	 -7.20592E-003	  7.51093E-003	  8.22661E-003	  7.68549E-003	 -1.67519E-002	  2.50587E-003	  3.39158E-002	  1.09344E-002
  2.20000E-003	  5.78033E-003	 -3.69652E-003	 -1.88980E-002	  9.13679E-003	  5.34904E-003	  2.62398E-002	 -1.29127E-002	  1.97796E-002
  2.40000E-003	 -1.71509E-003	  3.83953E-003	  2.69830E-002	 -4.55288E-002	 -1.77342E-002	  5.84867E-003	  3.26444E-003	 -1.30283E-002
  2.60000E-003	  1.50189E-002	  1.15688E-002	 -1.68781E-002	 -4.11749E-002	  6.82244E-003	 -1.68824E-002	 -5.53364E-003	  5.62721E-003
  2.80000E-003	  1.10097E-002	 -1.57097E-003	 -2.16153E-003	  2.60686E-002	  1.56628E-002	 -3.51117E-003	  1.26301E-002	  2.74992E-002
  3.00000E-003	  2.11978E-003	  1.29214E-002	 -7.64416E-003	 -8.27702E-003	 -1.62608E-002	 -2.72451E-002	 -2.36974E-002	 -2.70199E-002
  3.20000E-003	  1.03123E-002	  1.29213E-002	 -1.44024E-003	 -1.02062E-003	 -2.99093E-004	 -3.17699E-003	 -1.71699E-002	 -1.25449E-002
  3.60000E-003	  2.51187E-003	  3.61246E-004	  7.07226E-003	  1.13154E-002	 -5.44659E-004	 -1.03640E-002	  1.54681E-002	 -1.27057E-002
  4.00000E-003	 -3.67620E-003	  1.06992E-002	 -1.64453E-002	 -1.26310E-002	 -1.79799E-002	 -2.40695E-002	 -1.19194E-002	 -4.02126E-003
  4.40000E-003	 -5.20143E-003	  1.14721E-002	 -1.52911E-002	  2.36515E-002	 -1.52786E-002	  2.10583E-002	  1.81643E-002	 -6.35319E-003
  4.80000E-003	  2.11967E-003	  1.13755E-002	 -8.36566E-003	  1.80882E-002	 -1.55242E-002	  4.31208E-002	  8.51955E-004	 -9.24801E-003
  5.20000E-003	  7.61050E-003	 -4.11681E-004	  7.93794E-003	 -1.98815E-003	  2.81866E-002	  2.22283E-002	 -8.65564E-003	  1.82528E-002
  5.60000E-003	 -1.32299E-003	  6.25482E-003	  6.06231E-003	 -6.58394E-003	 -5.21042E-003	  5.34715E-003	  2.84337E-004	 -8.85201E-004
  6.00000E-003	  1.49752E-002	  1.68015E-004	 -7.78854E-003	 -4.89076E-003	  1.86095E-002	  4.34431E-003	  1.84529E-003	 -4.42331E-003
  6.40000E-003	 -2.21655E-003	  1.09888E-002	 -3.09967E-003	 -5.25380E-003	 -2.50940E-003	 -5.18289E-003	 -2.12688E-003	 -4.82455E-003
  7.20000E-003	 -3.19706E-003	  5.19183E-003	  5.55711E-003	  6.23567E-003	  7.06769E-003	 -1.35399E-002	 -9.29306E-003	  1.04939E-002
  8.00000E-003	  1.85799E-003	 -3.55078E-003	 -5.04744E-003	 -1.74240E-004	  6.94490E-003	  1.04447E-002	  4.27405E-004	  1.09753E-002
  8.80000E-003	 -4.35188E-003	  3.30896E-003	 -3.31609E-003	 -6.58007E-004	  2.29067E-002	 -1.75652E-003	  1.72431E-002	  7.63024E-004
  9.60000E-003	 -2.78307E-003	 -6.59418E-003	  1.25547E-002	  1.89346E-002	  3.14610E-004	  2.83983E-003	  1.38374E-002	  4.62278E-003
  1.04000E-002	  1.62605E-002	  5.28958E-003	 -8.43802E-003	  9.14236E-004	  9.03222E-003	  1.27847E-002	  4.18788E-003	 -9.89152E-003
  1.12000E-002	  3.76336E-004	 -9.68590E-003	  1.25547E-002	  3.69590E-003	  2.74497E-002	  3.50839E-003	  1.46179E-002	 -1.64933E-003
  1.20000E-002	  6.45547E-003	 -7.12557E-003	  2.09579E-003	 -1.77108E-002	  2.11878E-002	 -2.67579E-003	 -1.77212E-003	  5.98978E-003
  1.28000E-002	  5.39326E-004	  6.98108E-003	  1.01750E-002	  6.05383E-003	  9.58431E-003	  5.22115E-003	  2.06164E-003	 -3.96055E-003
  1.44000E-002	 -5.63785E-003	 -8.28426E-003	 -1.22307E-003	 -1.00314E-002	 -2.50983E-003	  3.00654E-003	  9.95973E-004	 -3.65901E-003
  1.60000E-002	 -7.89802E-004	 -3.98485E-003	 -3.92832E-003	  7.86796E-003	 -1.34339E-003	 -1.13017E-003	 -3.33212E-003	 -1.00542E-003
  1.76000E-002	 -1.50884E-003	  1.46626E-004	 -2.70194E-003	  1.15569E-003	  6.45334E-003	  2.79762E-003	  2.06026E-003	 -2.93530E-003
  1.92000E-002	  2.88753E-004	 -3.81464E-003	 -1.47556E-003	 -5.91940E-003	 -5.76358E-003	 -1.97416E-006	 -2.19688E-003	  1.36672E-003
  2.08000E-002	 -7.93659E-003	  7.27207E-003	 -3.06264E-003	 -1.97672E-002	  2.52428E-003	  6.01506E-003	 -5.07045E-003	  6.83222E-004
  2.24000E-002	  2.34781E-003	  4.13204E-003	  5.81057E-003	  1.19195E-002	 -4.04462E-003	  2.54691E-003	  5.32407E-003	 -6.95589E-003
  2.40000E-002	 -2.71875E-005	 -4.12864E-003	  7.54455E-005	 -1.17246E-002	 -1.52756E-003	 -2.17479E-003	  6.03359E-003	  2.85434E-003
  2.56000E-002	 -3.88241E-003	  7.33503E-003	 -7.69848E-003	  1.66884E-003	 -5.48457E-003	 -4.02913E-003	 -4.69470E-003	  5.09704E-003
  2.88000E-002	  7.53203E-004	  1.75543E-003	  8.86165E-004	  5.89225E-006	 -7.26710E-004	  7.52448E-003	 -3.32487E-004	  4.61457E-003
  3.20000E-002	 -9.19104E-004	  9.81359E-004	 -3.35205E-003	  4.81332E-003	 -2.33767E-004	 -7.78979E-003	 -1.37367E-004	  2.16201E-003
  3.52000E-002	  3.21536E-003	 -4.33254E-003	  1.28293E-003	  1.94276E-003	 -5.39068E-003	 -8.93889E-003	 -7.04987E-004	  4.53256E-004
  3.84000E-002	  1.45045E-003	  3.39677E-003	  1.69774E-003	  6.47808E-003	 -3.21127E-003	 -1.10908E-002	 -3.25928E-003	  2.75504E-003
  4.16000E-002	  3.27528E-003	  3.26392E-003	 -2.10764E-003	 -5.10210E-003	 -2.90431E-003	 -2.43980E-003	  1.13840E-003	 -1.65755E-003
  4.48000E-002	 -1.45838E-003	 -1.20459E-003	 -5.92702E-004	  1.04087E-002	  2.65165E-003	  5.52029E-003	 -2.78172E-003	 -2.04956E-003
  4.80000E-002	  1.58119E-003	 -3.74076E-003	  5.14242E-003	 -5.07008E-003	 -1.36952E-003	  7.56777E-003	 -2.46243E-003	  2.50272E-003
  5.12000E-002	  3.35108E-004	 -2.99029E-003	  4.95273E-003	  2.49069E-003	 -2.77899E-004	  1.11771E-003	 -2.94508E-003	 -1.54145E-003
  5.76000E-002	  3.32384E-004	  3.62794E-003	  2.47292E-003	 -1.72718E-003	 -1.45969E-003	  3.06969E-003	  9.20473E-004	  1.58291E-004
  6.40000E-002	 -2.30485E-003	  1.75599E-003	  2.78853E-003	  4.60718E-003	 -1.96618E-003	 -1.36106E-003	 -1.79347E-003	 -3.19157E-004
  7.04000E-002	 -1.13855E-004	  3.45772E-003	  4.92567E-003	 -3.08778E-003	  1.68483E-003	 -5.25354E-004	 -1.11055E-003	 -3.56078E-003
  7.68000E-002	  9.64700E-004	  6.41056E-003	  3.23039E-003	  1.73480E-003	  7.56492E-003	  9.55038E-004	  2.53465E-003	 -2.64210E-003
  8.32000E-002	 -7.30005E-005	 -3.14352E-003	  2.98692E-003	  2.94422E-003	  3.40562E-003	  2.08324E-003	 -8.01504E-004	 -2.12843E-003
  8.96000E-002	 -1.82898E-003	 -1.13269E-003	 -1.17916E-003	  1.85574E-003	  4.86368E-003	 -5.78283E-003	  7.16484E-004	 -1.60575E-003
  9.60000E-002	  2.00861E-003	 -8.79077E-004	 -2.70311E-003	 -9.42035E-003	 -5.94131E-003	 -2.84742E-003	  4.13559E-004	 -1.07302E-003
  1.02400E-001	  6.27056E-005	  1.69732E-004	  1.26533E-003	 -2.83626E-004	 -1.93280E-004	  2.19848E-003	 -1.29777E-003	  6.24059E-004
  1.15200E-001	 -1.79405E-003	 -1.44271E-004	 -3.55903E-003	 -1.43259E-003	 -1.03742E-003	  2.27161E-003	  4.98223E-004	  2.35588E-003
  1.28000E-001	 -2.00562E-004	  2.48249E-003	 -2.50398E-003	 -1.41926E-003	  2.75172E-003	  3.65425E-003	  7.01909E-004	 -7.05372E-005
  1.40800E-001	  2.07112E-003	 -1.25536E-003	  4.31210E-004	 -1.30011E-003	 -8.76535E-005	 -1.42268E-003	 -3.97520E-003	 -1.25766E-003
  1.53600E-001	  8.51093E-004	  6.28660E-004	 -1.33770E-004	  1.33795E-003	 -2.34380E-003	 -1.61483E-005	  1.16005E-003	  2.63525E-003
  1.66400E-001	 -3.07711E-005	  7.09044E-004	  7.24278E-004	 -3.09158E-003	 -5.12946E-003	 -2.02334E-003	  2.96936E-003	  5.86806E-004
  1.79200E-001	  9.02683E-005	 -1.67676E-004	 -1.60674E-003	  2.31305E-003	  3.40279E-004	 -7.28592E-005	  1.88874E-004	  1.83970E-003
  1.92000E-001	  1.37991E-003	 -2.71465E-004	  3.07923E-003	 -1.64026E-003	  2.17436E-003	  1.55154E-003	  1.01233E-003	 -2.13330E-004
  2.04800E-001	 -2.10885E-004	 -1.02742E-003	  4.72593E-004	 -1.54760E-003	  8.95027E-004	  1.26343E-003	  1.09741E-003	  3.20572E-004
  2.30400E-001	 -3.52898E-005	 -1.48231E-005	 -6.52349E-004	 -1.79884E-003	 -1.25369E-003	 -3.86837E-003	  3.10263E-004	  1.87392E-006
  2.56000E-001	  7.81131E-004	  5.87523E-004	  4.16233E-004	 -5.83833E-004	 -3.13626E-004	 -9.16181E-005	  5.35588E-004	 -6.45422E-004
  2.81600E-001	 -5.95167E-004	  1.75561E-003	 -8.64262E-004	  2.92821E-004	 -1.36496E-003	  1.95066E-003	 -1.14514E-003	 -4.53405E-004
  3.07200E-001	 -9.57334E-004	 -1.01760E-003	  6.64216E-004	  3.93071E-004	 -2.14082E-004	  5.95236E-004	  3.39370E-003	 -6.51599E-005
  3.32800E-001	 -1.36588E-003	 -1.82007E-004	 -4.70611E-004	  8.07017E-004	  3.42158E-003	 -5.31861E-004	  2.29751E-003	  4.55234E-004
  3.58400E-001	  1.02502E-005	  1.05137E-003	 -1.55272E-003	 -1.27746E-003	  6.11516E-003	 -2.89910E-003	  8.32707E-004	  8.65498E-004
  3.84000E-001	 -1.22926E-003	 -1.23892E-004	 -1.11311E-003	 -1.37573E-003	 -1.25007E-003	  5.38522E-004	 -3.26626E-003	 -1.43883E-003
  4.09600E-001	 -9.47164E-005	 -6.39072E-004	  1.80431E-004	 -1.12208E-003	 -1.06607E-003	 -3.16807E-004	 -3.08926E-004	 -1.05914E-003
  4.60800E-001	  3.14264E-004	  9.99278E-004	  1.62837E-003	  5.42517E-004	 -8.55035E-004	  2.77409E-003	  1.53802E-005	  5.53728E-004
  5.12000E-001	  2.82355E-004	  3.61823E-004	 -1.48366E-004	  7.61822E-004	 -2.25365E-003	 -1.71125E-003	  2.39928E-003	 -1.18672E-004
  5.63200E-001	  9.53657E-004	 -3.14127E-004	  2.14593E-004	 -2.62115E-003	  9.15774E-004	  3.85664E-005	  3.26075E-004	 -6.77844E-005
  6.14400E-001	  3.78965E-004	 -2.61257E-003	 -2.95162E-004	  5.19654E-004	  1.80975E-004	 -3.14008E-004	 -1.00211E-003	  4.38541E-004
  6.65600E-001	  5.34002E-005	 -8.32317E-004	  9.90109E-004	  1.73874E-003	  1.32442E-003	  1.64586E-003	  1.96025E-003	  1.18768E-004
  7.16800E-001	  2.28725E-004	 -1.54858E-004	 -5.16094E-004	  1.96689E-004	  5.93352E-004	 -5.11375E-004	 -4.36689E-004	  6.86474E-004
  7.68000E-001	  7.83589E-004	 -7.06924E-005	 -2.27270E-004	  2.09968E-003	 -1.22263E-004	  6.71518E-004	  6.38943E-005	 -1.16159E-004
  8.19200E-001	  2.84024E-004	 -3.33379E-004	  4.87552E-004	  5.50851E-004	  6.24077E-004	 -4.76744E-004	  4.53620E-004	 -4.93704E-006
  9.21600E-001	  1.55139E-004	 -7.70444E-004	  8.25114E-004	 -3.55304E-004	  5.37104E-004	 -2.05313E-004	 -2.98607E-004	 -8.51268E-004
  1.02400E+000	  6.04923E-004	 -1.13767E-003	  1.22445E-003	 -2.06387E-003	 -7.36386E-005	 -1.12506E-004	  6.27859E-005	  7.34862E-004
  1.12640E+000	 -1.97736E-004	  1.71244E-004	  1.18040E-004	 -2.28119E-004	 -4.24628E-004	  3.25882E-004	  1.72853E-004	  7.44600E-004
  1.22880E+000	 -2.97073E-004	 -1.05409E-004	 -7.72300E-005	  4.37093E-004	 -5.19159E-004	 -1.41742E-003	 -8.50491E-004	  8.98114E-004
  1.33120E+000	  2.16122E-005	 -1.24660E-004	  8.58710E-004	 -1.19098E-003	  1.84951E-004	 -5.95856E-004	 -1.03518E-004	 -8.07105E-005
  1.43360E+000	  4.31123E-004	  1.35257E-003	 -1.40301E-003	 -9.44356E-004	  1.46689E-004	 -1.19179E-003	 -1.47579E-004	 -5.77255E-004
  1.53600E+000	 -2.66245E-004	 -2.89217E-004	  1.91135E-004	  8.85922E-004	 -1.25504E-003	 -4.12012E-004	  2.41019E-004	  5.50185E-005
  1.63840E+000	 -5.32712E-004	  2.72803E-004	 -5.43754E-004	  7.83474E-004	 -6.36524E-004	  2.42128E-005	  2.65375E-004	 -2.66319E-004
  1.84320E+000	  1.57066E-004	  1.67666E-004	  1.24138E-004	  2.44252E-004	 -4.24065E-005	 -2.14692E-004	 -1.02720E-003	 -1.08198E-004
  2.04800E+000	  8.72640E-005	 -6.03110E-004	 -9.98514E-005	  8.72805E-005	 -6.37743E-004	 -1.81760E-004	 -2.16943E-004	  3.55235E-004
  2.25280E+000	 -2.30475E-005	  1.89172E-004	 -1.07481E-003	 -1.01151E-004	  2.72332E-004	 -1.46272E-003	  5.07109E-004	 -9.15814E-005
  2.45760E+000	  5.82807E-004	  7.07995E-004	  6.07090E-004	 -5.48142E-004	  6.24687E-004	 -8.28419E-004	  7.47134E-004	 -7.15088E-005
  2.66240E+000	  1.72552E-004	 -6.52356E-005	  8.27441E-004	  1.42669E-004	 -9.63969E-004	  8.19527E-004	 -1.74305E-004	  2.20169E-005
  2.86720E+000	 -2.62933E-005	  9.05798E-004	  4.49785E-004	  8.72042E-004	  5.05842E-004	  1.12372E-003	  1.51424E-004	 -9.33491E-005
  3.07200E+000	  4.62017E-004	  7.21406E-004	  9.55650E-005	 -1.03221E-004	 -4.23871E-005	  1.02579E-004	  3.12520E-004	 -1.14585E-004
  3.27680E+000	 -7.44166E-005	  1.00404E-004	  4.29237E-004	  2.60156E-004	 -7.51797E-005	 -4.05076E-004	  7.51857E-005	 -2.12221E-004
  3.68640E+000	  1.59875E-004	 -1.48486E-004	 -1.71809E-004	 -3.94384E-004	 -1.10048E-004	 -1.36202E-004	 -3.32901E-004	 -2.04920E-005
  4.09600E+000	 -1.40339E-004	 -1.44236E-004	  2.23438E-004	  1.00521E-003	 -2.92550E-005	  3.61732E-004	  2.54172E-004	  2.56085E-004
  4.50560E+000	  4.47822E-005	 -7.08177E-004	  6.01337E-004	  7.01609E-004	 -1.87659E-004	  1.35190E-004	  1.16675E-004	 -4.18680E-006
  4.91520E+000	 -3.34024E-004	 -2.73177E-004	 -5.12249E-004	 -9.58055E-004	 -9.73792E-005	  3.00804E-004	  8.77499E-006	  2.08120E-004
  5.32480E+000	 -5.82577E-004	  2.81122E-004	 -4.25246E-004	  5.64339E-004	 -2.31687E-004	  2.28365E-005	  1.62459E-004	 -4.38145E-004
  5.73440E+000	  4.95713E-005	 -3.32932E-005	 -5.33992E-004	 -1.21028E-004	  8.42787E-006	 -4.36936E-004	 -6.39879E-004	 -3.70585E-004
  6.14400E+000	  1.13995E-004	 -8.29312E-005	 -3.84937E-004	  6.61228E-005	  8.09053E-004	  4.72801E-005	  3.96149E-004	 -2.93197E-004
  6.55360E+000	 -1.56585E-004	 -3.10307E-004	 -3.80937E-004	 -1.34776E-004	  5.20495E-005	  2.69192E-004	  3.06851E-004	  2.67496E-005
  7.37280E+000	  2.30728E-005	  2.02097E-004	  2.17998E-005	  7.83511E-005	  2.58803E-004	  3.67727E-004	  2.21264E-004	  2.32221E-004
  8.19200E+000	  4.78386E-005	 -1.42790E-004	  1.00909E-004	 -1.04591E-004	 -5.25595E-005	  4.85250E-004	 -1.48368E-004	  8.70258E-005
  9.01120E+000	  1.26840E-004	  5.22797E-005	 -3.00074E-004	 -2.28295E-004	  5.83241E-004	  1.61053E-004	 -6.83553E-005	 -1.77572E-004
  9.83040E+000	 -1.06405E-004	  1.93118E-004	 -1.46350E-005	  8.15869E-004	  3.66067E-004	 -4.33591E-004	 -2.94506E-004	  2.13407E-004
  1.06496E+001	  5.09614E-005	 -3.13900E-004	 -5.01220E-005	 -6.16858E-004	  5.39004E-005	 -6.32930E-005	 -2.09526E-004	 -2.99807E-004
  1.14688E+001	 -1.24733E-004	  1.44318E-004	  3.21948E-005	  2.71539E-004	 -9.32381E-005	 -6.74099E-005	 -2.56159E-004	 -1.15675E-004
  1.22880E+001	  8.22789E-005	  2.97360E-004	 -6.72918E-006	  1.72528E-004	  6.88128E-004	  1.17063E-005	 -1.28842E-005	  2.22456E-004
  1.31072E+001	 -1.16201E-004	 -6.43138E-006	  7.31726E-006	  3.82374E-006	  1.26805E-004	  6.81871E-005	  1.10069E-004	  2.31083E-004
  1.47456E+001	  4.71949E-005	 -2.04929E-005	 -4.35883E-004	  6.51521E-005	 -5.11234E-004	  1.08749E-005	 -3.57105E-005	  3.29455E-005
  1.63840E+001	  5.66584E-005	 -2.99829E-004	  1.56019E-004	  8.26262E-005	 -2.67267E-004	  5.56187E-004	 -2.01065E-004	  1.25388E-004
  1.80224E+001	 -1.47431E-004	 -1.69442E-004	 -2.71768E-004	 -3.15444E-004	 -7.63846E-005	 -4.16241E-007	  2.09060E-004	  4.54251E-005
  1.96608E+001	 -5.47450E-005	  9.91139E-005	 -3.88828E-004	  1.55122E-005	 -5.09384E-005	  1.72558E-004	 -1.41960E-004	 -1.20194E-004
  2.12992E+001	 -4.53573E-005	  9.78950E-006	  1.22153E-004	  6.61385E-005	  2.29013E-004	 -5.44501E-004	  5.62019E-006	  8.56753E-005
  2.29376E+001	 -5.84148E-005	  6.36749E-005	 -1.14383E-004	  1.15317E-005	  4.48755E-004	 -9.81613E-005	 -1.68615E-004	  1.93603E-005
  2.45760E+001	 -1.42017E-004	 -9.15138E-005	  6.53017E-006	 -8.09796E-005	 -6.10457E-005	 -1.78002E-004	  2.79564E-004	  4.60097E-005
  2.62144E+001	  4.41705E-005	  2.40749E-004	  3.40688E-005	  2.09560E-004	  2.48622E-004	 -8.48065E-005	 -6.40221E-005	  1.09073E-004
  2.94912E+001	 -7.71826E-006	  8.77750E-005	  2.68008E-004	  1.98508E-004	  1.31242E-004	  2.53564E-004	 -7.99842E-005	 -1.16622E-004
  3.27680E+001	  2.11550E-005	 -8.90590E-005	  4.77498E-005	 -3.91353E-004	 -6.78788E-005	 -7.69635E-005	 -1.55813E-004	 -1.34125E-004
  3.60448E+001	  1.36184E-004	  9.95020E-006	 -7.78954E-005	  2.14146E-004	 -1.76559E-005	 -1.86593E-004	  2.60239E-005	 -9.72094E-005
  3.93216E+001	 -9.22893E-005	 -6.28859E-005	  1.65925E-004	  1.76016E-004	  6.62947E-005	 -5.42046E-005	 -9.71391E-005	  4.90290E-005
  4.25984E+001	 -2.75795E-005	 -2.46112E-005	  3.87329E-005	  1.01384E-004	 -5.50009E-005	  5.75542E-007	  6.13217E-005	  1.02061E-004
  4.58752E+001	  9.58615E-005	  1.06674E-004	 -2.57994E-005	  5.57615E-004	  3.23026E-005	  2.42594E-005	  2.42303E-004	 -1.13391E-004
  4.91520E+001	  6.98777E-005	 -1.28831E-004	  2.86904E-005	 -1.75896E-004	  3.53666E-004	 -1.41146E-004	  3.27727E-004	  1.34144E-004
  5.24288E+001	  6.05940E-005	  1.73516E-004	  4.78901E-005	  6.32771E-005	  7.57060E-005	 -3.89827E-005	  3.03271E-005	  1.00714E-004
  5.89824E+001	  1.54725E-005	  8.93939E-005	 -1.23081E-005	  2.52870E-004	 -5.18553E-005	 -7.59886E-005	 -4.00890E-005	 -3.43977E-005
  6.55360E+001	 -3.07182E-005	  6.92566E-005	  1.02588E-004	  1.52437E-004	  2.08961E-004	 -3.18164E-005	  2.47516E-005	  5.01745E-005
  7.20896E+001	 -8.12189E-006	 -4.26141E-005	 -1.47916E-004	 -2.41591E-004	  1.77581E-004	  5.94033E-005	  2.07112E-004	  1.54403E-004
  7.86432E+001	 -4.73064E-006	 -9.54974E-005	  1.96783E-005	 -1.80343E-005	 -1.36742E-005	  4.87027E-006	 -1.86222E-005	  1.01352E-005
  8.51968E+001	 -3.91316E-006	  5.03761E-005	  3.81959E-005	  1.82503E-004	  3.80782E-005	  2.57515E-005	 -1.74783E-005	  1.06494E-005
  9.17504E+001	 -1.44759E-005	  1.11940E-004	  3.59854E-005	 -2.68603E-005	  5.49667E-005	  1.45180E-004	  5.64137E-005	 -2.54903E-005
  9.83040E+001	  1.14719E-005	 -8.62291E-005	 -1.67597E-004	  8.15173E-005	  1.52797E-004	  5.39967E-005	 -8.62722E-005	 -9.80801E-005
  1.04858E+002	  4.40375E-005	 -7.90833E-005	 -2.13868E-005	  1.44815E-005	  1.80382E-005	  6.39185E-005	  1.36811E-004	 -2.05143E-005
  1.17965E+002	 -3.18367E-005	 -1.63386E-005	  1.09389E-004	  8.12754E-005	  1.74808E-005	  9.82067E-005	  1.29605E-004	 -1.51303E-006
  1.31072E+002	  3.08879E-005	  6.18744E-005	 -5.88292E-005	  9.79299E-006	 -8.95545E-005	  2.17225E-005	  1.86401E-006	 -5.98002E-005
  1.44179E+002	  1.68620E-005	  6.23198E-005	  4.57836E-005	 -1.02074E-004	  1.15167E-004	  8.72287E-005	  4.75562E-005	  1.47207E-005
  1.57286E+002	 -2.83842E-005	 -1.17579E-005	 -5.19567E-005	  1.04616E-005	 -1.00264E-004	 -5.05854E-005	  1.02323E-004	 -2.48941E-005
  1.70394E+002	  1.27795E-006	 -1.01280E-005	  1.51665E-004	  1.96802E-006	 -7.33178E-005	  2.92555E-005	  4.22370E-005	 -7.67254E-005
  1.83501E+002	  5.55385E-005	 -4.78931E-005	 -3.11657E-005	  7.27706E-005	  9.01118E-005	  4.18338E-005	 -8.84296E-005	 -9.33262E-005
  1.96608E+002	 -2.68806E-005	 -2.84358E-006	 -4.24717E-005	  9.04960E-005	  1.23559E-005	  2.14368E-005	  1.21432E-005	  1.19650E-005
  2.09715E+002	  6.73083E-006	  4.15017E-005	 -6.99013E-005	  3.19765E-005	 -2.32041E-005	  5.76971E-006	  3.26243E-005	 -1.29415E-005
  2.35930E+002	  1.56012E-005	 -4.11636E-006	  1.34012E-005	  9.01140E-005	  1.64584E-005	 -7.00335E-005	  8.74926E-005	  3.46742E-005
  2.62144E+002	  4.23193E-005	  7.87448E-005	  1.61930E-005	  5.21076E-005	  1.19728E-004	  1.14205E-005	 -1.98149E-005	  1.24412E-007
  2.88358E+002	  2.11468E-006	  7.93953E-005	  2.73148E-005	 -7.68992E-005	  8.27976E-006	 -1.24495E-005	 -1.65189E-005	  1.04664E-005
  3.14573E+002	  6.70078E-005	  1.40930E-005	 -8.53230E-005	 -4.70699E-006	  7.82165E-005	 -6.11204E-007	  2.37252E-005	 -5.02493E-005
  3.40787E+002	  1.49999E-005	 -2.51383E-005	  3.29247E-005	  2.72872E-005	  1.16609E-005	 -7.38379E-006	  3.39985E-005	  1.10299E-005
  3.67002E+002	  1.68997E-005	  3.95888E-005	 -4.33811E-005	  2.63848E-005	 -9.18673E-005	 -4.40354E-006	  4.63944E-005	 -1.61665E-005
  3.93216E+002	 -1.56976E-005	  4.57730E-005	 -1.16655E-005	 -1.84510E-005	  3.57289E-005	 -5.96138E-005	  8.98962E-005	 -3.33678E-005
  4.19430E+002	 -2.81567E-005	  1.35495E-005	  2.62929E-005	 -1.22313E-005	  3.93991E-005	 -3.88804E-005	  6.37970E-005	 -3.95565E-005
  4.71859E+002	 -5.68456E-006	  3.77461E-005	  5.27453E-007	 -3.98557E-006	 -3.34633E-005	  4.48876E-005	  2.76625E-005	 -1.21835E-005
  5.24288E+002	 -2.96622E-005	 -8.99599E-006	 -4.93533E-005	 -3.02076E-005	  6.87978E-005	  6.05784E-005	  1.91846E-005	  4.27255E-006
  5.76717E+002	 -8.79324E-007	  4.80200E-005	 -2.76261E-005	 -7.68230E-005	 -3.16844E-005	 -1.56982E-006	  5.83028E-005	 -6.92232E-006
  6.29146E+002	  2.20415E-005	  4.41481E-005	  1.49293E-005	 -1.03311E-004	  4.41052E-006	  3.85387E-006	  3.41966E-005	 -7.76736E-006
  6.81574E+002	 -1.62907E-005	 -2.75669E-005	  5.02707E-005	  5.12852E-005	  2.84308E-005	 -1.21166E-005	 -4.46225E-005	 -3.16299E-005
  7.34003E+002	 -6.82594E-006	  4.30853E-005	  4.39306E-005	 -4.86651E-005	  4.77802E-005	  8.39617E-005	  1.14655E-005	  5.68368E-006
  7.86432E+002	 -1.35034E-005	  6.60183E-005	 -9.33396E-006	 -4.25839E-005	  1.63630E-005	 -1.22868E-005	  3.33109E-005	 -2.31985E-006
  8.38861E+002	 -2.22582E-006	  1.63300E-005	  3.43210E-005	  1.32453E-005	  1.40136E-005	  3.31573E-005	  8.59725E-006	  3.76896E-006
  9.43718E+002	  7.47858E-006	 -7.01434E-007	  5.72595E-005	  7.81726E-005	  5.20717E-005	  2.19752E-007	  4.43447E-005	  1.72893E-005
  1.04858E+003	 -6.62248E-006	  4.86290E-006	 -1.87310E-005	  2.25854E-005	 -1.52309E-005	 -3.20737E-005	  2.84307E-005	  1.31855E-006
  1.15343E+003	 -5.95684E-006	 -3.06655E-006	 -7.52466E-006	  7.76712E-006	 -5.06844E-005	  5.64873E-006	  3.10165E-005	  5.93143E-006
  1.25829E+003	 -1.85453E-005	  3.04982E-005	 -2.16653E-005	  9.00297E-006	 -2.65801E-005	  4.26906E-005	  1.69265E-005	 -2.36906E-006
  1.36315E+003	 -1.51638E-005	  3.18976E-005	 -8.89125E-006	  4.76870E-005	  1.58800E-005	  1.71589E-005	 -6.80465E-006	  5.62512E-006
  1.46801E+003	  6.94039E-006	 -8.95041E-006	 -2.36813E-005	 -6.17634E-006	  2.12354E-005	 -3.20298E-006	  5.43744E-005	  5.24335E-005
  1.57286E+003	  1.46460E-005	  1.05779E-005	 -9.99121E-006	 -4.60688E-005	 -3.34796E-005	  5.47933E-005	  1.22050E-006	 -3.26799E-006
  1.67772E+003	  7.94442E-006	  1.22753E-005	 -2.53423E-005	 -4.87645E-005	 -1.59656E-005	  2.33167E-005	  2.76200E-005	 -4.75661E-007
  1.88744E+003	 -9.48569E-006	 -1.85565E-005	  1.84869E-005	 -1.07341E-005	 -1.23782E-005	 -1.40684E-005	  1.03858E-005	 -1.67251E-005
  2.09715E+003	  2.42781E-006	 -3.47355E-005	 -1.15066E-005	  5.76374E-006	 -4.78506E-005	  5.25294E-005	  2.59220E-005	  9.86699E-006
  2.30687E+003	 -3.22257E-006	 -2.13080E-005	  1.33145E-005	  6.38356E-005	  1.58037E-005	  1.43960E-005	  1.58105E-005	  1.30429E-005
  2.51658E+003	  1.66537E-007	 -1.00328E-005	 -4.97394E-005	 -6.41602E-006	 -9.48272E-006	 -3.93275E-005	  1.70924E-005	 -1.20143E-006
  2.72630E+003	 -1.36834E-006	 -1.46941E-005	  5.95998E-005	 -1.16430E-005	  1.87481E-005	  9.87731E-006	  3.53749E-005	  6.14371E-006
  2.93601E+003	 -9.26587E-006	  5.08892E-006	  4.12122E-006	  3.71216E-007	 -8.15515E-006	  2.90836E-005	  1.31274E-005	 -3.82417E-006
"Count Rate"
       0.11679	      43.54019	      29.10924	      23.54838	      18.37132	      19.13039	      21.72318	      23.87247	      32.54640
       0.23357	      43.47196	      29.75744	      23.90659	      18.32014	      18.72953	      21.96199	      24.01747	      31.65939
       0.35036	      44.59777	      29.20306	      24.17099	      18.69542	      17.91075	      22.13257	      23.99188	      31.10501
       0.46714	      43.59989	      30.03889	      24.36715	      19.45449	      18.37132	      22.79783	      23.45456	      31.68497
       0.58393	      44.11163	      29.06659	      24.72537	      18.37984	      18.76365	      22.49079	      24.11129	      32.93873
       0.70072	      43.61695	      29.04101	      25.41621	      18.75512	      17.81693	      22.07287	      24.25628	      32.21377
       0.81750	      43.71930	      30.43122	      23.97482	      18.85746	      18.35426	      22.33727	      24.26481	      33.35665
       0.93429	      44.31632	      30.09859	      23.87247	      19.56536	      18.49925	      22.03876	      24.51215	      31.56557
       1.05107	      44.02634	      29.87684	      25.20299	      18.61865	      18.49072	      23.20722	      24.46950	      31.99202
       1.16786	      43.56578	      30.20094	      23.00253	      18.84041	      19.37773	      21.97905	      23.78719	      31.12207
       1.28465	      44.17986	      30.56769	      23.78719	      18.26044	      18.05574	      22.55049	      23.94924	      32.01760
       1.40143	      42.70435	      29.71479	      24.55479	      18.95128	      18.99393	      21.82553	      24.06011	      31.14765
       1.51822	      43.71077	      30.26917	      23.97482	      18.59307	      18.61865	      22.78930	      23.83836	      32.12848
       1.63500	      45.04981	      29.22011	      24.17952	      18.13251	      19.34361	      22.38844	      24.75948	      33.10931
       1.75179	      43.37814	      29.03248	      23.86395	      18.70394	      17.73165	      22.79783	      23.65072	      32.66580
       1.86858	      44.06898	      29.39922	      24.05158	      18.79776	      18.32867	      22.78077	      24.66567	      32.56345
       1.98536	      44.51249	      29.64656	      24.36715	      19.08775	      17.86811	      21.74877	      24.06011	      31.88114
       2.10215	      43.59989	      29.45893	      23.78719	      18.59307	      18.03869	      21.97052	      24.01747	      31.76174
       2.21894	      42.95169	      29.35658	      24.05158	      18.98540	      18.32014	      22.39697	      24.40127	      32.76815
       2.33572	      44.35897	      30.02183	      24.00041	      19.34361	      17.97898	      22.29462	      23.79572	      30.79797
       2.45251	      43.83017	      28.89602	      24.39274	      18.96834	      18.97687	      22.03876	      24.77654	      32.24789
       2.56929	      43.83017	      29.61245	      24.59743	      17.89370	      18.39690	      22.35433	      24.30745	      32.08583
       2.68608	      41.80882	      29.33952	      23.74454	      17.83399	      18.36279	      22.49079	      24.17952	      32.40141
       2.80287	      44.05193	      29.74038	      23.33515	      18.25191	      18.02163	      22.29462	      24.15393	      32.04319
       2.91965	      43.04551	      29.37364	      24.05158	      18.62718	      18.25191	      22.90871	      24.37568	      31.35235
       3.03644	      43.53166	      29.47598	      24.17952	      19.38626	      17.46725	      21.91082	      24.32451	      31.96643
       3.15322	      43.79605	      29.76597	      24.21363	      18.27750	      18.25191	      22.20933	      24.02600	      31.79585
       3.27001	      43.71077	      29.08365	      24.00894	      18.70394	      18.33720	      22.65284	      24.80213	      32.94726
       3.38680	      43.79605	      29.80861	      23.85542	      18.84894	      18.84894	      22.85753	      24.85330	      31.92379
       3.50358	      43.27579	      28.13694	      23.92365	      17.95340	      18.24338	      22.55049	      24.51215	      31.44617
       3.62037	      43.70224	      30.04742	      24.00041	      18.12398	      18.15809	      21.90229	      24.65714	      33.30547
       3.73715	      43.36108	      29.61245	      24.13687	      18.95981	      18.27750	      22.49079	      24.25628	      32.74256
       3.85394	      43.18197	      29.79155	      23.26692	      18.50778	      18.46513	      22.74666	      24.40127	      32.12848
       3.97073	      43.65107	      29.56980	      24.00041	      19.07069	      18.92570	      21.92788	      24.36715	      32.56345
       4.08751	      44.18839	      29.26276	      24.23922	      18.28603	      18.64424	      21.70613	      24.08570	      32.16259
       4.20430	      43.28432	      30.34593	      24.88742	      18.39690	      18.59307	      22.32874	      23.82983	      31.52293
       4.32108	      43.77047	      29.20306	      24.12834	      19.82123	      18.03016	      22.50785	      23.78719	      32.14554
       4.43787	      43.68518	      29.44187	      23.94071	      18.82335	      18.71247	      21.91082	      24.25628	      32.05172
       4.55466	      42.90052	      28.93866	      23.49720	      17.97898	      17.85105	      22.70401	      25.26269	      32.70845
       4.67144	      43.07110	      28.81926	      24.04305	      18.63571	      18.49072	      22.37138	      24.02600	      32.91314
       4.78823	      44.99010	      29.31393	      23.94924	      19.09628	      18.51631	      22.20081	      24.30745	      32.02613
       4.90501	      44.14574	      29.25423	      23.65925	      18.33720	      18.42249	      22.59314	      24.10276	      32.98137
       5.02180	      44.18839	      29.16041	      24.41833	      18.36279	      18.69542	      22.65284	      23.24986	      31.87261
       5.13859	      44.00928	      29.13482	      24.16246	      18.80629	      18.96834	      22.51638	      24.24775	      32.98137
       5.25537	      43.06257	      29.04101	      24.18805	      18.90011	      18.44808	      21.52702	      24.24775	      32.49522
       5.37216	      44.01781	      28.65721	      24.35863	      18.55895	      18.70394	      22.49079	      24.47803	      32.62316
       5.48894	      43.01139	      29.97066	      23.82983	      18.14956	      18.26897	      22.48226	      23.82983	      32.17112
       5.60573	      42.91758	      29.23717	      23.47161	      18.42249	      18.22632	      22.91723	      24.21363	      30.84914
       5.72252	      43.74488	      28.99836	      24.74243	      18.36279	      18.16662	      22.12404	      25.04094	      31.76174
       5.83930	      43.95811	      29.71479	      23.56543	      18.49072	      18.85746	      21.86818	      23.98335	      32.01760
       5.95609	      43.65959	      29.51010	      24.69125	      18.45660	      19.15598	      22.39697	      23.44603	      32.26494
       6.07287	      44.01781	      28.78514	      23.53985	      18.49072	      18.09839	      21.83406	      23.94071	      32.11995
       6.18966	      43.33549	      28.73396	      24.07717	      18.08133	      18.36279	      22.74666	      24.23922	      31.77879
       6.30645	      44.48690	      28.29046	      24.34157	      18.23485	      17.88517	      22.09846	      25.25416	      33.25430
       6.42323	      43.06257	      29.23717	      24.46950	      18.01310	      18.93423	      22.15816	      23.88953	      32.54640
       6.54002	      44.53807	      28.78514	      23.85542	      18.89158	      18.32014	      22.43962	      23.97482	      31.71909
       6.65680	      43.36961	      28.29899	      24.60596	      18.86599	      18.93423	      22.60167	      24.11981	      32.18818
       6.77359	      43.99222	      29.40775	      24.14540	      18.42249	      17.94487	      22.42256	      24.84477	      33.28841
       6.89038	      43.31844	      29.20306	      24.53773	      18.25191	      19.30950	      22.61872	      24.46950	      31.49734
       7.00716	      44.28220	      29.52716	      23.88100	      18.97687	      18.04722	      22.43109	      23.94071	      32.46964
       7.12395	      44.17986	      29.80008	      24.48656	      18.55895	      18.41396	      22.72107	      24.40980	      32.06878
       7.24074	      43.02845	      28.64868	      24.06864	      18.72953	      18.78070	      22.57608	      24.40127	      31.43764
       7.35752	      43.65107	      29.54421	      24.44391	      18.48219	      18.39690	      22.45667	      23.69337	      32.13701
       7.47431	      44.39308	      29.31393	      23.60808	      18.34573	      18.03016	      21.84259	      24.52067	      33.17754
       7.59109	      43.54019	      29.34805	      24.37568	      18.08133	      18.07280	      22.78077	      24.23069	      32.71698
       7.70788	      43.50607	      29.17747	      24.70831	      18.73806	      18.37984	      23.32662	      24.00041	      31.88114
       7.82467	      43.85576	      28.76808	      24.40127	      19.11333	      18.33720	      22.36285	      24.31598	      31.51440
       7.94145	      44.94746	      29.48451	      23.59955	      18.51631	      18.78070	      22.71254	      24.37568	      31.88967
       8.05824	      43.66812	      28.93013	      23.61661	      18.48219	      18.40543	      22.16669	      24.98124	      32.29053
       8.17502	      43.26726	      29.87684	      23.72748	      18.92570	      18.17515	      22.22639	      24.91301	      32.05172
       8.29181	      43.14786	      28.85337	      24.38421	      17.98751	      18.39690	      22.82342	      25.00682	      31.74468
       8.40860	      43.63401	      29.93654	      24.08570	      18.04722	      18.32867	      21.76583	      24.50362	      32.41846
       8.52538	      43.22462	      29.57833	      24.27333	      19.28391	      18.47366	      21.82553	      24.15393	      33.07519
       8.64217	      43.22462	      28.79367	      24.23069	      18.23485	      18.64424	      22.80636	      24.17099	      32.29906
       8.75895	      43.55725	      28.92160	      23.55691	      18.83188	      18.60160	      22.81489	      24.29892	      32.58904
       8.87574	      42.62759	      29.55274	      23.59102	      18.73806	      18.89158	      21.65495	      24.45244	      32.30759
       8.99253	      43.48901	      28.69985	      24.80213	      18.56748	      18.83188	      22.32021	      24.49509	      31.60822
       9.10931	      43.01992	      29.13482	      23.79572	      18.80629	      18.03869	      22.09846	      23.76160	      31.77027
       9.22610	      43.86429	      29.11777	      24.23069	      19.60801	      18.39690	      22.86606	      24.26481	      32.30759
       9.34288	      44.02634	      29.67215	      23.53132	      18.94275	      18.61865	      22.37138	      25.00682	      32.26494
       9.45967	      43.62548	      28.71691	      24.17952	      18.51631	      18.29456	      22.59314	      23.82983	      32.27347
       9.57646	      43.85576	      29.35658	      23.50573	      18.27750	      18.76365	      23.19016	      23.86395	      32.63169
       9.69324	      43.07963	      29.35658	      23.38633	      18.08986	      17.88517	      22.45667	      24.46950	      32.22230
       9.81003	      44.59777	      28.91307	      23.59955	      18.06427	      17.91928	      22.37991	      24.39274	      32.72551
       9.92681	      43.59989	      28.88749	      23.99188	      17.98751	      18.08133	      22.76371	      24.25628	      32.32465
      10.04360	      44.00075	      28.83631	      24.69978	      18.92570	      18.35426	      22.20933	      25.36504	      32.32465
      10.16039	      42.71288	      29.50157	      23.75307	      19.20715	      19.25832	      21.85112	      23.47161	      31.90673
      10.27717	      42.78964	      29.80861	      23.52279	      19.02804	      19.24127	      21.68054	      24.39274	      32.12848
      10.39396	      43.79605	      29.85979	      23.88100	      18.36279	      18.35426	      22.40550	      23.88953	      32.58904
      10.51074	      44.24809	      29.29688	      24.17952	      19.24127	      18.49072	      22.96841	      24.41833	      31.66792
      10.62753	      43.64254	      28.83631	      24.29039	      17.92781	      18.01310	      21.83406	      23.90659	      32.58051
      10.74432	      44.54660	      29.83420	      24.37568	      18.11545	      18.95128	      22.95135	      24.41833	      32.02613
      10.86110	      44.07751	      28.99836	      23.42044	      19.00246	      17.59518	      23.07928	      23.54838	      32.91314
      10.97789	      42.72994	      29.68068	      22.87459	      18.08133	      18.65277	      22.95988	      24.23922	      32.16259
      11.09467	      43.59989	      30.27770	      24.28186	      18.68689	      18.69542	      21.97905	      24.06011	      32.14554
      11.21146	      43.73635	      30.22653	      23.94071	      18.22632	      18.83188	      22.52490	      23.24986	      32.20524
      11.32825	      43.17344	      29.46745	      24.68272	      18.78923	      19.13892	      22.28609	      24.34157	      32.74256
      11.44503	      43.15639	      29.96213	      23.88953	      18.74659	      18.06427	      22.55902	      24.60596	      31.64233
      11.56182	      43.95811	      28.59750	      24.25628	      18.83188	      18.80629	      22.84048	      24.21363	      31.83850
      11.67861	      43.49754	      29.91096	      23.77013	      18.59307	      18.19221	      22.25198	      24.87036	      32.00055
      11.79539	      43.72783	      30.92590	      23.07076	      18.59307	      18.34573	      22.76371	      24.40127	      32.56345
      11.91218	      42.78964	      29.68921	      23.22428	      18.31161	      18.97687	      21.74877	      24.38421	      32.23936
      12.02896	      43.70224	      29.51863	      24.10276	      17.60371	      18.85746	      22.01317	      23.88953	      31.97496
      12.14575	      43.01992	      28.58897	      23.22428	      18.19221	      18.63571	      21.81700	      25.33092	      32.32465
      12.26254	      44.40161	      29.39069	      24.11129	      18.44808	      17.76576	      22.10699	      24.19658	      32.04319
      12.37932	      43.66812	      28.71691	      23.63367	      17.79988	      18.93423	      23.26692	      24.41833	      33.03255
      12.49611	      43.98369	      29.90243	      23.94071	      18.94275	      17.86811	      22.14110	      25.07505	      32.29053
      12.61289	      44.52954	      29.56980	      24.46097	      18.93423	      18.49925	      22.29462	      24.14540	      32.30759
      12.72968	      42.89199	      29.39922	      24.13687	      18.70394	      18.12398	      21.17733	      24.04305	      32.95579
      12.84647	      44.11163	      29.91096	      23.48014	      18.95981	      18.00457	      22.14963	      23.96629	      32.63169
      12.96325	      44.29073	      30.01331	      23.76160	      18.55042	      18.23485	      23.04517	      24.02600	      32.66580
      13.08004	      43.61695	      29.39069	      23.81277	      18.56748	      17.98751	      21.85965	      23.59955	      32.07730
      13.19682	      43.58283	      28.35016	      24.50362	      18.36279	      18.44808	      23.08781	      23.24133	      32.03466
      13.31361	      42.84082	      29.09218	      24.63155	      19.02804	      18.10692	      22.31168	      23.30957	      32.09436
      13.43040	      43.28432	      29.22864	      25.10064	      18.87452	      18.73806	      21.84259	      24.36715	      32.52934
      13.54718	      43.05404	      29.14335	      24.17099	      18.28603	      18.58454	      21.68054	      24.47803	      32.32465
      13.66397	      44.38455	      29.45040	      24.35010	      19.62507	      17.83399	      23.07076	      24.50362	      31.35235
      13.78075	      43.75341	      29.42481	      23.72748	      18.44808	      18.62718	      22.19228	      24.70831	      32.49522
      13.89754	      44.20544	      28.03459	      23.91512	      18.49925	      18.62718	      22.84048	      23.94924	      32.30759
      14.01433	      43.97516	      28.60603	      24.22216	      18.52484	      17.99604	      22.29462	      24.52067	      31.46322
      14.13111	      44.70865	      29.50157	      24.12834	      18.28603	      18.49072	      21.64643	      23.90659	      32.65727
      14.24790	      43.60842	      29.94507	      24.19658	      18.56748	      18.93423	      21.97052	      23.53985	      31.94937
      14.36468	      44.00075	      29.41628	      24.17952	      18.36279	      18.39690	      22.01317	      24.29039	      32.47816
      14.48147	      43.65107	      27.60815	      23.71043	      18.50778	      18.42249	      22.39697	      23.73601	      31.96643
      14.59826	      43.71930	      29.41628	      23.24986	      18.14104	      18.51631	      22.55902	      24.02600	      31.92379
      14.71504	      44.26515	      29.21159	      24.02600	      18.33720	      18.95981	      22.21786	      24.89595	      31.32676
      14.83183	      43.47196	      29.00689	      23.22428	      18.53337	      18.38837	      22.40550	      23.88100	      31.61674
      14.94861	      43.94958	      29.84273	      23.45456	      19.52272	      18.72100	      22.43109	      24.60596	      31.56557
      15.06540	      43.87282	      28.78514	      24.18805	      18.08133	      18.63571	      22.64431	      24.12834	      33.16048
      15.18219	      43.36961	      28.98130	      24.11981	      18.31161	      19.11333	      22.63578	      24.26481	      32.36729
      15.29897	      44.06898	      29.38216	      23.33515	      18.69542	      19.08775	      22.78930	      24.64861	      32.42699
      15.41576	      43.80458	      29.74891	      23.86395	      18.72953	      18.87452	      22.37991	      24.36715	      32.52934
      15.53254	      44.40161	      29.80861	      23.82983	      18.58454	      18.29456	      22.90018	      24.98977	      31.96643
      15.64933	      44.53807	      29.07512	      23.30104	      18.90011	      18.81482	      22.86606	      24.24775	      33.10078
      15.76612	      43.77900	      29.63803	      23.79572	      18.90011	      18.98540	      22.78077	      23.92365	      31.82997
      15.88290	      44.15427	      29.74891	      24.25628	      19.07922	      18.70394	      22.82342	      24.37568	      31.53998
      15.99969	      44.08604	      29.45893	      24.17099	      18.81482	      18.08986	      22.55049	      23.78719	      32.53787
      16.11647	      44.11163	      29.61245	      24.07717	      18.38837	      17.62077	      22.78930	      24.68272	      32.21377
      16.23326	      42.68729	      29.39922	      24.61449	      18.42249	      18.55895	      21.93641	      24.79360	      32.65727
      16.35005	      44.28220	      30.38005	      23.94071	      18.44808	      18.47366	      22.99400	      24.65714	      31.07942
      16.46683	      43.55725	      29.28835	      24.00894	      18.52484	      18.72953	      22.61019	      24.47803	      32.85344
      16.58362	      43.77900	      29.63803	      24.93006	      18.91717	      18.69542	      22.21786	      24.00041	      32.27347
      16.70041	      44.81100	      29.87684	      24.37568	      18.93423	      18.64424	      22.79783	      24.31598	      32.19671
      16.81719	      43.48048	      29.72332	      23.07076	      18.92570	      19.02804	      22.66990	      23.74454	      32.50375
      16.93398	      43.94105	      30.15830	      24.74243	      18.86599	      18.13251	      22.30315	      25.07505	      31.47175
      17.05076	      43.71930	      29.29688	      24.24775	      18.03869	      18.07280	      22.42256	      24.78507	      32.69139
      17.16755	      43.88134	      29.62097	      24.11129	      18.24338	      19.00246	      21.90229	      24.45244	      31.96643
      17.28433	      42.85788	      29.27982	      24.11981	      19.25832	      18.25191	      21.74024	      24.52067	      31.98349
      17.40112	      43.09668	      29.66362	      23.36927	      18.77217	      18.43102	      22.11552	      25.08358	      32.10289
      17.51791	      43.37814	      30.01331	      23.49720	      18.82335	      18.94275	      22.55902	      24.69125	      32.90461
      17.63469	      43.28432	      29.12630	      24.13687	      18.88305	      18.77217	      23.05370	      23.92365	      33.21165
      17.75148	      43.01139	      29.30540	      24.75948	      17.94487	      17.81693	      21.86818	      24.32451	      31.53145
      17.86827	      42.40584	      28.75955	      24.13687	      18.96834	      18.61865	      22.08140	      24.45244	      31.96643
      17.98505	      42.81523	      29.30540	      23.97482	      18.35426	      18.48219	      22.59314	      24.18805	      32.39288
      18.10184	      45.33126	      29.07512	      23.91512	      18.55895	      18.78070	      23.24986	      24.17952	      31.60822
      18.21862	      43.77047	      28.69132	      23.78719	      18.55895	      18.14956	      21.55261	      23.89806	      32.10289
      18.33541	      43.95811	      29.67215	      23.55691	      18.53337	      18.39690	      22.09846	      23.53132	      31.75321
      18.45220	      44.64042	      29.16894	      24.43538	      18.66983	      19.22421	      22.56755	      24.28186	      32.30759
      18.56898	      43.36961	      28.96425	      24.51215	      17.73165	      17.69753	      22.06434	      24.82771	      32.50375
      18.68577	      43.01139	      29.13482	      24.64861	      18.59307	      17.76576	      22.45667	      24.36715	      31.45469
      18.80255	      43.77900	      29.59539	      23.98335	      18.72100	      17.35637	      22.43109	      24.93859	      32.06878
      18.91934	      42.43143	      29.31393	      24.19658	      17.71459	      18.05574	      22.09846	      24.85330	      33.04960
      19.03613	      43.59989	      29.60392	      23.82983	      18.68689	      18.46513	      21.96199	      23.68484	      31.72762
      19.15291	      45.16921	      28.79367	      24.02600	      17.50136	      18.10692	      22.17522	      25.03241	      32.02613
      19.26970	      43.86429	      29.30540	      23.89806	      18.87452	      18.07280	      22.52490	      24.35863	      32.04319
      19.38648	      44.19691	      28.92160	      23.91512	      18.33720	      19.19009	      22.55902	      24.08570	      31.77027
      19.50327	      43.30991	      29.87684	      24.76801	      18.25191	      17.57813	      22.41403	      24.46097	      32.65727
      19.62006	      45.32273	      28.51221	      24.33304	      18.49925	      17.81693	      22.93429	      24.74243	      31.76174
      19.73684	      42.83229	      29.83420	      24.54626	      19.21568	      18.11545	      22.05581	      25.04947	      31.71056
      19.85363	      43.19050	      29.56980	      24.48656	      18.66130	      18.39690	      21.34791	      24.47803	      32.56345
      19.97042	      44.34191	      30.45681	      23.23281	      18.78923	      18.00457	      22.25198	      24.42686	      31.19030
      20.08720	      43.05404	      28.95572	      23.52279	      19.60801	      18.26044	      22.42256	      25.35651	      32.16259
      20.20399	      44.27368	      30.29476	      23.89806	      19.06216	      17.74870	      23.29251	      24.94712	      32.18818
      20.32077	      44.83659	      28.93013	      23.64219	      18.68689	      18.40543	      22.19228	      24.40980	      32.67433
      20.43756	      43.30138	      29.07512	      25.02388	      18.46513	      18.08133	      22.49079	      24.59743	      31.25853
      20.55434	      44.23103	      29.48451	      24.54626	      17.74870	      18.70394	      22.48226	      24.22216	      33.08372
      20.67113	      45.89417	      29.19453	      24.12834	      19.10480	      19.10480	      21.91082	      23.93218	      31.01119
      20.78792	      43.29285	      29.56127	      23.99188	      17.62930	      18.54189	      22.49932	      23.94071	      32.32465
      20.90470	      45.45920	      29.42481	      24.36715	      17.78282	      18.39690	      22.39697	      24.26481	      32.17112
      21.02149	      44.00075	      28.69985	      23.82983	      18.02163	      18.05574	      22.14110	      24.75096	      32.25641
      21.13828	      43.63401	      29.33952	      23.33515	      18.94275	      18.85746	      21.75730	      24.88742	      31.96643
      21.25506	      44.15427	      29.08365	      24.32451	      18.56748	      19.00246	      21.56966	      23.47161	      32.05172
      21.37185	      43.01992	      28.93866	      25.00682	      18.66983	      18.91717	      22.38844	      25.53562	      32.41846
      21.48863	      44.16280	      30.34593	      23.65925	      18.47366	      18.80629	      21.96199	      24.55479	      31.08795
      21.60542	      43.33549	      30.15830	      24.27333	      18.28603	      18.49925	      22.54196	      23.99188	      32.03466
      21.72220	      43.32697	      29.19453	      24.43538	      17.90222	      18.35426	      21.85112	      24.39274	      32.76815
      21.83899	      43.40372	      28.98983	      24.69125	      18.20074	      17.93634	      22.46520	      23.25839	      32.19671
      21.95578	      42.91758	      29.60392	      23.75307	      18.14956	      17.87664	      21.95347	      24.10276	      31.64233
      22.07256	      43.42078	      28.91307	      23.46309	      18.67836	      18.56748	      21.80847	      24.17099	      31.95790
      22.18935	      43.85576	      28.87896	      24.06011	      18.71247	      18.49072	      21.30527	      23.71043	      31.69350
      22.30614	      43.99222	      29.56127	      23.84689	      19.12186	      17.94487	      22.57608	      24.21363	      32.17112
      22.42292	      43.92399	      29.38216	      23.37780	      18.61865	      17.83399	      22.27757	      23.93218	      32.48669
      22.53971	      43.57430	      29.44187	      24.23922	      17.88517	      17.97046	      22.55049	      24.23922	      32.14554
      22.65649	      43.31844	      29.09218	      24.13687	      19.09628	      18.64424	      21.48438	      23.84689	      32.00055
      22.77328	      43.15639	      29.52716	      24.30745	      18.20074	      18.19221	      22.00464	      23.61661	      31.52293
      22.89007	      43.20756	      29.85126	      23.20722	      18.27750	      18.09839	      22.08993	      23.49720	      31.10501
      23.00685	      44.29926	      29.16041	      22.80636	      18.18368	      18.65277	      21.24557	      24.52067	      31.83850
      23.12364	      43.85576	      29.29688	      24.40980	      18.43955	      18.74659	      22.64431	      23.90659	      32.31612
      23.24042	      43.57430	      30.15830	      23.83836	      18.48219	      17.89370	      22.76371	      24.04305	      32.59757
      23.35721	      43.65107	      28.39281	      23.84689	      18.48219	      18.78070	      22.31168	      23.71895	      32.85344
      23.47400	      43.50607	      29.87684	      24.53773	      18.41396	      18.84894	      21.47585	      25.22005	      32.50375
      23.59078	      43.48901	      29.94507	      24.07717	      18.14104	      18.82335	      21.94494	      23.74454	      31.30970
      23.70757	      41.64677	      30.04742	      24.06011	      18.23485	      18.70394	      22.37138	      24.04305	      32.11995
      23.82435	      42.89199	      28.64868	      23.25839	      18.12398	      17.27961	      21.46732	      23.47161	      31.93231
      23.94114	      43.18197	      29.12630	      24.07717	      18.63571	      17.94487	      22.26051	      23.77866	      31.98349
      24.05793	      44.17986	      29.88537	      23.06223	      18.91717	      18.22632	      22.14110	      24.66567	      32.44405
      24.17471	      43.74488	      29.50157	      24.24775	      18.55895	      18.65277	      22.66137	      24.52920	      32.26494
      24.29150	      42.96875	      28.96425	      24.11981	      19.23274	      18.08986	      21.60378	      24.01747	      31.53998
      24.40828	      43.33549	      29.04101	      23.70190	      19.36067	      18.57601	      22.65284	      24.15393	      31.81291
      24.52507	      43.62548	      29.36511	      24.54626	      18.79776	      18.38837	      22.28609	      23.87247	      31.39499
      24.64186	      43.55725	      29.60392	      24.32451	      18.40543	      18.60160	      22.38844	      23.97482	      32.70845
      24.75864	      44.15427	      28.69132	      23.94924	      18.14104	      18.08133	      21.73171	      23.71043	      32.29053
      24.87543	      44.28220	      29.86831	      23.58249	      18.28603	      18.01310	      21.95347	      23.94071	      32.41846
      24.99221	      44.42720	      29.10071	      24.50362	      18.49925	      17.97046	      22.61019	      23.87247	      31.55704
      25.10900	      44.76835	      29.15188	      24.28186	      18.28603	      18.38837	      22.36285	      24.01747	      31.63380
      25.22579	      43.88987	      28.82778	      23.20722	      17.82546	      17.92781	      23.20722	      23.77013	      31.54851
      25.34257	      43.55725	      29.15188	      24.67419	      18.71247	      18.44808	      22.19228	      24.37568	      31.40352
      25.45936	      44.03487	      29.80008	      24.87889	      19.35214	      18.62718	      22.70401	      23.31809	      32.02613
      25.57615	      44.04340	      29.69773	      23.40339	      19.37773	      17.67194	      21.63790	      23.04517	      32.27347
      25.69293	      45.21186	      29.65509	      24.06864	      18.37132	      18.29456	      22.33727	      24.35863	      32.02613
      25.80972	      43.15639	      28.87896	      24.06011	      18.43102	      18.26897	      22.08993	      23.87247	      32.48669
      25.92650	      43.42931	      29.33099	      24.43538	      18.64424	      18.49072	      22.57608	      24.00041	      31.98349
      26.04329	      43.01139	      29.39069	      23.51426	      18.28603	      18.77217	      22.64431	      23.95777	      32.84491
      26.16007	      42.93464	      29.18600	      23.90659	      17.91075	      18.80629	      22.68695	      23.48867	      32.67433
      26.27686	      42.87493	      28.71691	      24.05158	      19.24980	      18.23485	      22.23492	      24.66567	      31.71909
      26.39365	      43.61695	      29.38216	      24.21363	      18.32867	      18.27750	      22.05581	      23.96629	      31.35235
      26.51043	      43.90693	      29.07512	      23.62514	      18.71247	      18.45660	      21.38203	      24.06864	      31.90673
      26.62722	      43.43784	      28.49516	      23.68484	      18.30308	      18.91717	      22.22639	      23.90659	      32.20524
      26.74401	      44.28220	      29.20306	      23.93218	      18.51631	      18.58454	      22.17522	      24.27333	      32.30759
      26.86079	      43.82164	      29.32246	      24.12834	      18.18368	      18.37132	      21.65495	      24.06864	      31.97496
      26.97758	      44.14574	      29.16894	      23.36074	      18.78923	      18.58454	      21.65495	      24.52920	      32.09436
      27.09436	      44.29926	      28.82778	      24.59743	      18.32867	      18.54189	      21.59525	      24.29039	      32.79374
      27.21115	      44.16280	      29.77449	      24.22216	      19.01098	      18.82335	      22.37991	      24.02600	      31.65086
      27.32793	      44.36749	      29.15188	      24.19658	      18.26897	      17.93634	      22.95135	      24.22216	      32.09436
      27.44472	      42.87493	      29.50157	      23.58249	      18.26044	      18.63571	      22.96841	      24.35863	      31.82144
      27.56151	      44.35044	      28.53780	      23.10487	      18.61013	      17.68900	      22.82342	      23.69337	      33.41635
      27.67829	      43.74488	      29.74891	      22.97694	      18.66983	      18.72100	      21.56966	      23.30957	      32.47816
      27.79508	      43.67665	      29.60392	      23.85542	      18.12398	      18.66983	      21.35644	      23.91512	      31.81291
      27.91187	      44.10310	      28.10283	      23.45456	      18.07280	      19.21568	      22.60167	      23.36927	      32.25641
      28.02865	      43.26726	      28.76808	      24.57185	      17.78282	      18.14104	      22.14963	      23.86395	      32.39288
      28.14544	      43.40372	      27.83843	      23.75307	      18.27750	      18.77217	      21.50996	      23.13046	      32.61463
      28.26222	      44.65748	      29.39069	      23.82983	      18.55895	      18.32014	      21.70613	      22.87459	      32.85344
      28.37901	      42.93464	      28.86190	      23.78719	      17.90222	      18.11545	      22.12404	      24.75096	      32.35023
      28.49580	      43.17344	      29.37364	      23.76160	      18.43955	      18.28603	      22.53343	      24.62302	      32.44405
      28.61258	      44.33338	      29.05807	      24.46950	      18.39690	      18.83188	      21.74024	      24.25628	      31.47175
      28.72937	      43.36108	      29.83420	      24.27333	      18.56748	      18.09839	      23.06223	      24.05158	      32.78521
      28.84615	      44.25662	      29.94507	      24.17952	      18.12398	      18.13251	      22.82342	      25.06653	      31.39499
      28.96294	      43.43784	      28.44398	      23.24133	      18.49925	      17.85958	      22.54196	      23.82130	      33.56134
      29.07973	      43.25873	      29.34805	      24.13687	      18.27750	      18.09839	      22.72960	      23.80424	      32.67433
      29.19651	      43.12227	      29.62097	      24.29039	      18.23485	      18.01310	      22.65284	      24.44391	      32.35876
      29.31330	      42.80670	      29.19453	      24.02600	      18.49072	      17.68047	      21.82553	      23.94924	      32.75109
      29.43008	      43.72783	      29.65509	      23.72748	      18.90011	      18.30308	      22.07287	      23.84689	      31.08795
      29.54687	      43.91546	      28.65721	      23.38633	      18.20074	      18.03869	      22.72107	      24.21363	      32.97284
      29.66366	      42.78111	      30.28623	      23.59102	      18.56748	      17.41607	      21.27115	      23.91512	      32.19671

Monitor Diode	1566055.80
