ALV-7004 CGS-8F Data, Single Run Data
Date :	"11.05.2021"
Time :	"09:22:58"
Samplename : 	"092 2021 Toluol"
SampMemo(0) : 	"Toluol-Messung "
SampMemo(1) : 	""
SampMemo(2) : 	""
SampMemo(3) : 	""
SampMemo(4) : 	""
SampMemo(5) : 	""
SampMemo(6) : 	""
SampMemo(7) : 	""
SampMemo(8) : 	""
SampMemo(9) : 	""
Temperature [K] :	     292.95251
Viscosity [cp]  :	       1.00661
Refractive Index:	       1.33200
Wavelength [nm] :	     632.80000
Angle(1)[°]     :	      26.00000
Angle(2)[°]     :	      42.00000
Angle(3)[°]     :	      58.00000
Angle(4)[°]     :	      74.00000
Angle(5)[°]     :	      90.00000
Angle(6)[°]     :	     106.00000
Angle(7)[°]     :	     122.00000
Angle(8)[°]     :	     138.00000
Duration [s]    :	          30.0
Runs            :	         1
Mode            :	"8 x AUTO, 100 ns STC"
MeanCR1 [kHz]   :	      32.22582
MeanCR2 [kHz]   :	      24.22743
MeanCR3 [kHz]   :	      22.22208
MeanCR4 [kHz]   :	      18.47337
MeanCR5 [kHz]   :	      18.58648
MeanCR6 [kHz]   :	      24.03733
MeanCR7 [kHz]   :	      29.46997
MeanCR8 [kHz]   :	      43.74724
Atten[1]        :	       1.00000
Atten[2]        :	       1.00000
Atten[3]        :	       1.00000
RelSens[1]      :	       1.00000
RelSens[2]      :	       1.00000
RelSens[3]      :	       1.00000
RelSens[4]      :	       1.00000
RelSens[5]      :	       1.00000
RelSens[6]      :	       1.00000
RelSens[7]      :	       1.00000
RelSens[8]      :	       1.00000
DC[1][kHz]      :	       0.00000
DC[2][kHz]      :	       0.00000
DC[3][kHz]      :	       0.00000
DC[4][kHz]      :	       0.00000
DC[5][kHz]      :	       0.00000
DC[6][kHz]      :	       0.00000
DC[7][kHz]      :	       0.00000
DC[8][kHz]      :	       0.00000

"Correlation"
  1.00000E-004	 -1.41332E-001	  1.40427E-001	 -8.35428E-002	  2.38889E-002	  7.26182E-002	  2.66263E-001	  2.89571E-001	 -5.60773E-002
  2.00000E-004	  3.47752E-002	  1.30829E-001	  1.45666E-002	  9.74892E-002	  8.65419E-002	  8.63087E-002	  1.74390E-001	  8.27939E-002
  3.00000E-004	  2.22739E-002	  8.32189E-002	  6.91980E-003	  2.70260E-002	  4.91676E-002	  2.03030E-002	  8.91762E-002	  4.67516E-002
  4.00000E-004	  2.10543E-002	  2.06350E-002	  2.15860E-003	 -1.78582E-002	  2.47400E-002	 -6.08959E-002	  5.25342E-002	  2.77270E-002
  5.00000E-004	  1.58708E-002	  9.78844E-003	 -1.54434E-002	  9.16885E-003	  3.57324E-002	 -2.19002E-002	  5.01198E-002	 -2.53564E-003
  6.00000E-004	 -6.43111E-003	  2.84100E-002	  2.06263E-002	  5.79140E-002	  2.05873E-002	  8.82369E-003	  3.16567E-002	 -2.21221E-002
  7.00000E-004	 -7.38940E-003	 -1.20967E-002	  1.22581E-002	  3.52306E-002	 -3.55963E-002	  1.45633E-002	  2.51237E-002	 -1.71452E-002
  8.00000E-004	  1.29959E-002	  1.51637E-002	 -4.19907E-002	 -7.72306E-003	  5.44210E-003	  1.82772E-002	  1.63182E-002	  2.84495E-002
  9.00000E-004	  2.43212E-002	  3.64522E-003	 -1.37121E-002	  4.82519E-003	 -1.21458E-002	  2.63802E-002	 -2.62888E-002	 -1.16867E-002
  1.00000E-003	  3.49494E-002	  3.09057E-002	 -1.89061E-002	 -2.41323E-002	  1.52132E-002	  7.47317E-003	  1.17735E-002	  4.22563E-002
  1.10000E-003	  2.34500E-002	  9.02052E-003	  1.87002E-003	 -2.89681E-003	 -5.30607E-003	  2.50297E-002	  4.95635E-003	 -6.22820E-003
  1.20000E-003	  1.32227E-003	  1.01724E-002	 -3.85280E-002	 -2.99238E-002	  1.13047E-002	  2.70554E-002	 -1.29267E-003	  1.84957E-002
  1.30000E-003	  3.76155E-003	  1.40119E-002	  3.02424E-003	  2.99217E-002	 -3.36421E-002	  2.50297E-002	 -3.08335E-002	 -2.05404E-003
  1.40000E-003	  8.11740E-003	  1.05563E-002	  4.17847E-003	 -2.02713E-002	  1.03276E-002	  2.23287E-002	  8.36491E-003	 -1.07235E-002
  1.50000E-003	 -2.25478E-002	 -2.88193E-003	  7.11237E-002	 -8.10821E-002	  2.30300E-002	 -2.29131E-002	  1.00692E-002	  3.00549E-002
  1.60000E-003	 -2.49871E-002	  1.20921E-002	  9.08389E-003	 -2.70281E-002	  1.61902E-002	 -1.04195E-002	  9.78509E-003	 -5.58607E-003
  1.80000E-003	 -7.73794E-003	 -1.94335E-004	  2.15852E-003	  7.23826E-003	 -7.26033E-003	 -1.91978E-002	 -1.60631E-002	  3.39079E-002
  2.00000E-003	 -2.24957E-003	  2.22667E-002	  2.14918E-002	 -9.65361E-003	 -4.78102E-002	 -9.66013E-004	 -2.99814E-002	  4.84933E-003
  2.20000E-003	  2.89033E-003	 -2.69001E-003	 -2.45839E-003	  6.56359E-002	 -1.26344E-002	 -6.28387E-004	 -2.20281E-002	  1.14317E-002
  2.40000E-003	  1.67069E-003	 -3.07396E-003	 -1.05380E-002	 -1.11015E-002	 -2.19169E-002	  3.76075E-003	  1.20575E-002	 -7.03097E-003
  2.60000E-003	 -2.64681E-002	  1.19001E-002	 -1.88128E-003	 -4.72984E-002	 -1.21459E-002	 -2.89889E-002	 -2.71295E-003	  2.76225E-003
  2.80000E-003	 -2.59804E-003	  1.66995E-002	 -1.30416E-003	 -3.86211E-003	  2.40071E-002	  1.69281E-002	 -8.96197E-003	  2.70045E-002
  3.00000E-003	  2.80321E-003	  1.20921E-002	 -1.49937E-004	 -1.78582E-002	 -4.39018E-002	 -4.34227E-003	  2.71119E-002	  1.92984E-002
  3.20000E-003	  1.75770E-003	  1.62932E-003	 -6.64258E-003	  9.40997E-003	 -1.55658E-002	  1.91241E-002	 -1.09490E-002	 -8.47598E-003
  3.60000E-003	 -7.68693E-004	  6.04474E-003	 -1.80406E-002	 -2.00302E-002	 -6.03906E-003	 -1.97043E-002	  4.24746E-003	  1.30370E-002
  4.00000E-003	  3.76139E-003	  2.08268E-002	 -5.82879E-004	 -1.69040E-003	 -4.57340E-003	 -6.53694E-003	 -4.98406E-003	  3.96623E-003
  4.40000E-003	 -4.51472E-003	  7.10061E-003	  7.20816E-003	  8.44472E-003	  2.26634E-003	 -1.46400E-002	  2.25913E-003	  5.57168E-003
  4.80000E-003	 -4.90675E-003	  7.10061E-003	 -3.32417E-003	 -1.08603E-002	 -2.46041E-002	  1.73488E-003	  7.79804E-003	  1.78533E-002
  5.20000E-003	  7.42030E-003	 -1.63203E-002	  1.16808E-002	 -3.37959E-003	 -4.20699E-004	  1.67592E-002	 -2.85371E-003	  5.25059E-003
  5.60000E-003	  1.71414E-003	  1.45876E-002	 -7.79680E-003	  1.68797E-003	 -2.37491E-003	 -1.98731E-002	  9.92840E-003	 -5.29021E-004
  6.00000E-003	  1.14788E-003	 -7.00955E-003	  9.66089E-003	 -3.25784E-002	  1.03275E-002	 -3.49831E-003	  1.16327E-002	 -3.25828E-003
  6.40000E-003	  1.29753E-002	  6.69232E-004	  6.61610E-005	 -1.64107E-002	  2.02204E-002	 -5.35397E-003	  7.23112E-003	  1.31973E-002
  7.20000E-003	  1.91147E-003	  1.62672E-002	 -7.27370E-004	 -3.37980E-003	  1.05715E-002	 -3.73988E-004	  9.21945E-003	  1.13109E-002
  8.00000E-003	 -7.99810E-003	 -1.25052E-003	  5.04377E-003	  2.42505E-002	 -2.98774E-004	  2.49583E-003	  1.05172E-003	  4.00615E-003
  8.80000E-003	 -2.57506E-003	 -6.09788E-003	 -1.20532E-002	 -1.06192E-002	 -7.38279E-003	  1.32451E-004	  1.17745E-002	  2.15989E-003
  9.60000E-003	 -1.11585E-003	 -3.36111E-003	  2.37462E-003	 -9.77458E-003	 -2.98581E-003	 -6.87329E-003	 -1.22275E-002	  8.05990E-003
  1.04000E-002	  5.54860E-003	  3.21403E-003	  1.22039E-003	 -8.32671E-003	  2.03426E-002	 -7.12800E-003	  4.53129E-003	  2.15989E-003
  1.12000E-002	  6.70048E-004	 -1.39337E-003	  6.05372E-003	 -1.20670E-002	  3.60965E-003	 -1.74256E-002	 -1.43369E-003	  1.16320E-002
  1.20000E-002	  9.74958E-004	 -8.40046E-003	  8.79501E-003	  6.15204E-003	 -9.82555E-003	  7.72752E-003	 -2.64089E-003	 -2.57618E-003
  1.28000E-002	 -1.11399E-003	 -2.49652E-003	  1.48182E-002	  3.97980E-003	 -1.66029E-002	  6.59214E-003	 -1.19070E-002	  5.33947E-004
  1.44000E-002	 -2.12673E-003	  3.79067E-003	 -1.08620E-002	 -1.12832E-002	  5.44311E-003	 -5.43582E-003	  5.38439E-003	  4.30675E-003
  1.60000E-002	 -3.35802E-003	 -1.34467E-003	 -4.73923E-004	 -1.56268E-002	  8.19122E-003	 -5.30771E-003	  7.58575E-003	 -8.10614E-004
  1.76000E-002	 -3.80450E-003	 -2.16057E-003	 -3.57591E-003	  8.74571E-003	  1.96112E-002	 -6.74263E-003	 -4.91232E-003	  2.56082E-003
  1.92000E-002	  4.18850E-003	 -2.42340E-003	  7.17284E-003	  2.35274E-003	  5.57573E-004	 -1.18492E-002	  8.75141E-004	  2.64110E-003
  2.08000E-002	 -2.95510E-003	 -2.78336E-003	  4.93652E-003	 -4.40402E-003	  2.32858E-003	 -3.22873E-005	  1.90343E-003	 -2.99803E-003
  2.24000E-002	 -6.57390E-004	  7.20195E-004	  4.07085E-003	 -5.18829E-003	 -7.44249E-003	 -1.50989E-002	 -4.80717E-003	  8.03941E-003
  2.40000E-002	  1.77678E-005	  1.99203E-003	 -4.15303E-003	 -4.22304E-003	 -1.04960E-002	 -7.59911E-005	 -8.66022E-004	  5.20981E-003
  2.56000E-002	 -1.86941E-004	 -1.34326E-003	 -6.73159E-004	 -9.15920E-007	  3.39824E-003	  4.69665E-003	  8.66782E-003	 -4.07046E-003
  2.88000E-002	  2.41025E-003	  4.29602E-003	  1.27599E-003	  1.99171E-003	  2.14633E-003	 -4.14648E-003	 -5.23272E-003	 -1.41144E-003
  3.20000E-002	  2.70895E-003	 -1.10329E-003	 -5.25124E-003	 -5.72240E-004	 -9.08941E-004	  9.88768E-003	 -1.52236E-003	  4.57889E-003
  3.52000E-002	 -2.26763E-003	 -7.19343E-004	 -1.44589E-003	  1.84089E-003	  3.64071E-003	  3.62046E-003	  9.23591E-003	 -2.78611E-003
  3.84000E-002	  2.67083E-003	 -1.81120E-003	 -3.33955E-003	 -7.05753E-003	  7.42700E-003	 -4.56851E-003	  4.53139E-003	  3.56545E-003
  4.16000E-002	 -7.56696E-003	  1.23641E-003	 -2.91655E-004	  5.03829E-003	 -5.21431E-003	 -3.21800E-003	 -6.31428E-003	 -4.20091E-003
  4.48000E-002	  8.61624E-004	  5.65185E-003	  4.00064E-003	  4.43500E-003	  7.18272E-003	 -7.62826E-003	  6.98134E-004	  1.93993E-003
  4.80000E-002	  1.07942E-003	  1.93232E-003	  8.25827E-003	 -1.05566E-002	  4.80284E-003	  6.36218E-003	 -3.68418E-004	  3.25439E-003
  5.12000E-002	  1.38676E-003	  3.11949E-004	  6.85122E-003	  2.12754E-003	 -2.77471E-004	  3.88403E-003	 -1.26390E-003	  9.43977E-004
  5.76000E-002	 -1.09045E-004	 -6.70794E-004	  2.38759E-003	 -3.04561E-003	 -7.64223E-004	  5.39401E-004	  4.84311E-003	 -2.11140E-003
  6.40000E-002	  3.21861E-004	 -2.65054E-003	 -6.15192E-003	  1.26786E-003	 -3.54289E-003	  2.57572E-003	  6.10357E-003	  2.56846E-003
  7.04000E-002	  3.87199E-004	 -1.64867E-003	 -2.20228E-003	  4.08820E-003	  3.58698E-003	 -2.77357E-003	 -3.74931E-003	  2.09582E-003
  7.68000E-002	 -2.04121E-003	 -8.26774E-004	 -3.08623E-004	  4.38984E-003	  7.05268E-003	 -2.59421E-003	 -7.89462E-003	  7.32226E-004
  8.32000E-002	  9.71759E-004	 -4.61342E-003	  5.37236E-003	 -2.91992E-005	  5.31700E-004	 -3.42922E-003	  1.82512E-003	  1.48980E-003
  8.96000E-002	 -1.22448E-003	  3.23957E-003	 -4.34867E-004	 -4.22201E-003	  1.66149E-003	 -1.89030E-003	 -1.72091E-004	 -7.62850E-004
  9.60000E-002	 -1.20422E-003	 -2.81252E-003	 -7.50477E-004	  1.23769E-003	  1.26093E-005	  1.18000E-003	 -4.58370E-003	  1.86106E-003
  1.02400E-001	  8.05983E-004	 -1.16049E-003	  4.61114E-003	  2.38590E-003	  1.84357E-004	  7.04027E-004	  1.48852E-003	 -1.73233E-003
  1.15200E-001	  3.52696E-004	 -2.69602E-004	 -1.20511E-003	  6.28839E-004	 -2.17536E-005	 -3.24684E-004	  5.69809E-004	  2.10113E-003
  1.28000E-001	 -1.50297E-003	 -2.36034E-003	 -1.95044E-003	  6.24692E-003	  3.15387E-003	  2.47658E-003	  4.83052E-003	  6.78799E-004
  1.40800E-001	 -5.41952E-004	 -1.85527E-003	 -6.74469E-004	 -5.60939E-003	 -7.51896E-005	  7.66858E-006	  3.92280E-004	 -3.05388E-003
  1.53600E-001	 -8.92654E-005	  4.78437E-004	 -3.58259E-003	 -2.52511E-003	  1.00386E-004	 -1.70535E-003	 -2.57246E-003	  3.91730E-003
  1.66400E-001	  1.93819E-003	 -7.27414E-004	 -8.80484E-004	  2.32378E-003	 -7.77491E-004	 -3.33397E-003	 -4.45428E-003	 -1.82972E-003
  1.79200E-001	  1.25230E-003	  4.48441E-004	  1.96903E-003	  3.48510E-003	  1.03933E-003	  7.43958E-004	  2.98421E-003	 -3.88357E-004
  1.92000E-001	 -2.04942E-003	 -2.09712E-003	  3.01333E-003	  6.54675E-003	 -1.46633E-003	  1.38983E-003	 -4.64300E-004	 -1.74098E-004
  2.04800E-001	 -6.75789E-004	 -2.52383E-003	  3.88329E-003	 -1.46006E-003	 -6.55379E-004	  1.75789E-003	  1.11186E-003	  3.18583E-004
  2.30400E-001	  4.60157E-004	  8.80776E-004	  1.71371E-003	 -2.43107E-003	 -1.51641E-003	 -5.68234E-004	  1.54015E-003	 -4.57367E-004
  2.56000E-001	  2.74947E-004	 -1.49308E-003	  1.61653E-005	 -7.89086E-004	  1.54475E-003	  3.52340E-004	  5.27392E-004	  1.64352E-003
  2.81600E-001	  8.23337E-005	 -1.68840E-005	 -1.37704E-003	  2.20097E-003	  1.90937E-003	 -8.21458E-004	 -2.99500E-004	 -9.15393E-004
  3.07200E-001	  9.12683E-004	 -3.04850E-004	 -2.86042E-003	  2.86836E-003	 -6.80503E-004	 -1.35164E-003	 -2.07617E-003	 -2.10466E-003
  3.32800E-001	 -1.36797E-003	 -1.41022E-003	 -6.38991E-004	 -1.50067E-004	 -2.21872E-003	  2.25302E-003	  6.55566E-004	 -4.79349E-004
  3.58400E-001	 -3.57698E-004	 -1.49605E-004	 -9.71253E-004	  6.70123E-004	 -3.94027E-004	  2.47233E-003	 -1.37631E-003	  5.06065E-004
  3.84000E-001	 -1.20915E-003	 -8.92020E-004	 -5.45175E-004	  3.95035E-003	  1.59076E-003	 -1.08540E-004	  7.93993E-004	  1.70117E-003
  4.09600E-001	  4.14766E-005	 -1.06080E-003	  1.54254E-005	  1.73332E-003	 -4.65766E-004	 -1.37809E-005	  6.83201E-005	  2.05818E-003
  4.60800E-001	 -6.18635E-004	  4.27776E-004	  1.09164E-003	 -6.51505E-004	 -1.25395E-003	  8.25806E-004	 -1.30787E-003	  9.28490E-004
  5.12000E-001	 -3.08869E-004	 -4.36128E-004	  3.15530E-005	  8.22897E-004	 -1.77104E-003	 -3.44476E-003	  1.07884E-003	  2.74166E-004
  5.63200E-001	  9.00768E-004	  5.13649E-004	 -4.72303E-004	 -2.23448E-004	 -4.52407E-004	 -9.30774E-004	  1.86305E-003	 -1.62983E-003
  6.14400E-001	 -4.53502E-004	 -6.88838E-004	 -5.00482E-004	  1.53554E-003	 -5.38287E-004	  5.93682E-004	  4.19214E-004	  1.36572E-004
  6.65600E-001	 -4.17007E-004	  3.31419E-004	 -1.30027E-003	 -1.34839E-004	 -8.39926E-004	  4.01124E-004	  1.06748E-003	 -1.59913E-003
  7.16800E-001	 -4.87955E-004	 -7.66091E-004	 -1.34736E-003	  9.26500E-004	  1.85099E-003	  7.42716E-004	 -4.35162E-004	 -5.74793E-004
  7.68000E-001	  1.56094E-004	  1.57820E-004	  1.66252E-003	 -1.01358E-003	  2.63164E-003	  1.21506E-003	 -9.03405E-004	  2.50304E-004
  8.19200E-001	  2.64490E-004	  5.88043E-005	  1.11819E-003	 -1.08722E-003	  4.43739E-004	 -1.45403E-003	 -3.71928E-004	  3.52839E-004
  9.21600E-001	 -2.16296E-004	  7.42745E-004	 -7.96095E-004	  2.78659E-005	  7.57381E-004	 -2.13866E-004	 -1.05045E-003	 -2.11124E-004
  1.02400E+000	  2.61365E-004	  4.86869E-005	 -1.20368E-003	  1.20517E-003	  2.38524E-003	  5.74382E-004	  2.17604E-004	 -6.50296E-005
  1.12640E+000	  3.73494E-004	  1.03188E-003	 -1.16727E-004	 -3.35337E-004	 -3.71815E-004	 -3.82147E-004	  4.10140E-004	 -4.36150E-004
  1.22880E+000	 -2.45460E-004	  1.01841E-003	  5.60174E-004	  1.53911E-004	  4.71649E-004	 -7.34007E-004	 -5.86546E-004	 -4.35522E-004
  1.33120E+000	 -3.34546E-005	 -4.68969E-005	 -8.09622E-004	 -1.97432E-004	 -1.95504E-003	  1.43715E-003	  1.24151E-004	 -7.78551E-004
  1.43360E+000	  6.49311E-004	 -4.13986E-004	  3.05202E-004	  1.32395E-003	  1.44595E-003	 -7.34486E-004	 -3.37442E-004	  1.79029E-004
  1.53600E+000	 -1.05773E-004	  1.02703E-004	  1.00525E-004	  5.58499E-004	 -5.54287E-004	  1.06653E-003	  6.17061E-004	  7.91221E-005
  1.63840E+000	  1.87819E-005	 -1.07115E-004	  4.92922E-004	 -1.84882E-005	 -4.87906E-004	 -3.96090E-004	  7.09297E-004	  6.31347E-004
  1.84320E+000	  1.29787E-005	  2.82772E-005	 -1.14602E-003	 -1.23539E-003	  4.30751E-004	 -7.14751E-004	 -9.49739E-004	 -1.45128E-004
  2.04800E+000	  5.07614E-005	  5.77906E-004	 -5.02851E-004	 -4.33676E-004	  6.97331E-004	  1.91078E-004	  2.58969E-004	  6.68452E-004
  2.25280E+000	  2.91744E-004	  4.30685E-004	  2.82603E-004	  1.37003E-003	 -1.30388E-004	 -8.42437E-004	 -4.99239E-004	 -9.28190E-005
  2.45760E+000	 -8.71597E-005	  4.99319E-004	  2.42539E-004	  5.14876E-004	 -1.04065E-003	 -1.96655E-004	 -1.95762E-004	 -7.40283E-004
  2.66240E+000	 -4.51088E-005	 -5.05338E-004	  2.53402E-004	 -1.25847E-003	 -9.86231E-005	  5.93039E-004	 -4.24044E-004	  4.30048E-004
  2.86720E+000	  5.95260E-004	  6.82494E-005	  6.16056E-004	  9.81075E-004	 -1.30699E-004	 -5.45523E-004	  4.23813E-004	  7.06913E-004
  3.07200E+000	 -4.43146E-004	 -3.09788E-004	  4.76928E-004	  2.96335E-004	  7.45221E-004	 -8.75116E-004	  2.86784E-004	  1.96245E-004
  3.27680E+000	 -3.24828E-004	 -2.08788E-004	 -4.55131E-005	  4.68734E-004	 -6.80441E-004	  3.52426E-004	  5.39155E-004	  3.76458E-005
  3.68640E+000	  8.02739E-006	  2.36441E-004	  5.62625E-005	  2.94442E-004	  2.48458E-004	 -4.47703E-006	 -5.33088E-005	  4.89849E-005
  4.09600E+000	 -4.04555E-005	  2.55937E-004	 -1.25731E-004	 -7.61091E-004	  5.51353E-004	  4.54406E-004	  1.31162E-004	  5.45907E-004
  4.50560E+000	 -2.38565E-005	 -2.18220E-004	  9.84594E-005	  2.94315E-004	 -1.34591E-004	  9.53748E-005	 -1.46264E-004	 -6.03120E-005
  4.91520E+000	  3.14657E-004	 -2.41332E-004	 -8.87194E-004	 -3.96133E-004	  1.94385E-004	  3.60984E-004	 -9.66972E-006	  2.24153E-004
  5.32480E+000	 -8.13565E-005	  3.73269E-004	  4.28109E-004	  5.34958E-004	  5.49614E-004	  2.14750E-004	  6.18466E-005	 -7.07895E-005
  5.73440E+000	  2.82234E-004	 -5.50767E-005	  2.72343E-004	  1.60895E-006	 -4.03478E-004	 -8.60507E-005	 -1.60055E-004	  4.91621E-004
  6.14400E+000	 -1.67846E-004	 -3.17207E-004	 -2.13325E-004	  2.34892E-004	  1.51700E-003	  2.52185E-004	  1.58709E-004	  3.78529E-004
  6.55360E+000	  1.33884E-004	  1.09468E-004	 -2.93106E-005	 -1.89387E-004	  9.35196E-004	 -1.51058E-005	 -3.90270E-004	 -4.35720E-005
  7.37280E+000	 -1.39213E-006	 -9.29961E-005	  3.68061E-004	  1.61784E-004	  2.39409E-004	  5.39607E-004	 -4.51242E-004	 -1.36517E-004
  8.19200E+000	  1.15190E-004	  1.82456E-004	  4.52107E-004	 -4.64177E-004	  3.37974E-006	 -4.06776E-004	 -7.79953E-005	 -1.38306E-004
  9.01120E+000	 -1.79606E-004	  3.50911E-004	 -6.05827E-006	 -1.85249E-004	 -3.14938E-004	  1.64237E-004	  2.65989E-004	 -1.44604E-004
  9.83040E+000	  1.94196E-004	  4.08437E-005	  6.72906E-005	 -3.93830E-004	 -4.78796E-004	  2.38986E-004	  6.69595E-005	  5.27687E-005
  1.06496E+001	  1.74389E-004	 -1.01881E-004	 -4.39916E-004	 -1.20060E-004	  1.03279E-004	 -1.87443E-004	  1.34236E-004	  4.67997E-004
  1.14688E+001	  1.56220E-004	 -5.15659E-005	 -6.92531E-005	 -2.18168E-004	 -3.23543E-004	 -1.55199E-005	 -5.89182E-005	 -9.53503E-005
  1.22880E+001	 -1.59147E-004	  3.27732E-004	  8.84226E-005	  1.26419E-004	  3.37247E-004	  2.45690E-004	 -5.40552E-005	  1.78589E-004
  1.31072E+001	 -7.02082E-005	 -5.71588E-005	  3.55424E-008	  3.46655E-004	  2.88306E-004	  1.38052E-004	 -2.36359E-004	  1.11453E-004
  1.47456E+001	  6.06104E-005	  1.73071E-004	 -6.76858E-005	  3.27831E-004	 -3.54136E-004	  4.82143E-004	 -8.17423E-005	  1.01037E-004
  1.63840E+001	  1.15649E-004	  5.40866E-005	 -1.21562E-004	 -8.93921E-005	  3.40641E-004	 -7.61440E-005	  1.68985E-004	  1.28096E-005
  1.80224E+001	 -2.47873E-004	 -7.66923E-005	  2.14758E-004	  1.42646E-005	 -4.77005E-004	 -7.36576E-005	  1.23607E-004	 -9.55638E-005
  1.96608E+001	 -1.18002E-004	  2.13946E-005	  1.36174E-004	  4.19606E-005	  1.49373E-004	  7.39923E-005	  1.88840E-004	  1.91645E-004
  2.12992E+001	 -8.88865E-005	  4.34816E-005	 -2.87429E-005	 -3.38357E-004	  4.17453E-004	 -1.98191E-004	  8.97722E-005	  1.70077E-004
  2.29376E+001	  5.08974E-005	  1.04604E-004	  4.53848E-005	 -3.81554E-004	  2.20398E-004	  1.95024E-004	 -1.84434E-004	  5.40947E-005
  2.45760E+001	  5.05780E-005	 -2.67328E-006	  3.51645E-005	  1.04241E-005	  1.60719E-004	  9.41698E-005	  2.09023E-005	 -1.24733E-004
  2.62144E+001	  8.69651E-005	 -3.83088E-005	 -2.80681E-005	 -2.30177E-006	  7.40714E-005	  1.01417E-004	 -3.43063E-005	  5.07615E-006
  2.94912E+001	 -3.43226E-005	 -1.19181E-005	 -2.55382E-004	 -6.77759E-005	  4.20140E-004	 -3.67406E-005	 -4.47673E-005	 -5.17611E-005
  3.27680E+001	  4.05343E-005	 -1.43787E-004	  3.09536E-004	 -1.25733E-004	 -3.27706E-004	  4.97786E-005	  2.08464E-004	  1.35600E-004
  3.60448E+001	  3.31220E-005	  2.34510E-005	 -5.62146E-005	  5.12251E-005	  1.15991E-004	 -5.04162E-005	  1.31357E-004	  1.59035E-004
  3.93216E+001	 -5.81426E-005	 -1.12957E-004	 -1.49281E-004	 -3.81961E-005	  1.62330E-004	  1.00382E-005	 -2.10675E-004	 -1.49538E-004
  4.25984E+001	  1.37782E-004	 -5.78176E-005	  1.92464E-005	 -2.04668E-004	 -1.02263E-004	  1.91243E-004	  4.50727E-005	  4.01363E-005
  4.58752E+001	  5.81532E-005	  1.70698E-004	  3.67934E-006	  1.81958E-004	 -3.49801E-005	 -6.35168E-005	 -1.59565E-004	 -6.30478E-005
  4.91520E+001	  8.97747E-005	 -4.40092E-005	 -3.62710E-005	  6.73181E-005	 -3.31158E-004	  1.66561E-004	  1.54963E-004	  2.80665E-005
  5.24288E+001	  1.49126E-004	  2.07893E-005	  4.62670E-005	  1.39453E-004	  8.44906E-005	  2.27594E-004	  2.48495E-006	 -1.52861E-005
  5.89824E+001	  2.49303E-005	  8.90076E-005	  1.31800E-004	  1.87788E-004	  1.80844E-004	  1.17933E-005	  1.37205E-004	 -9.78159E-005
  6.55360E+001	 -5.55616E-005	 -5.54652E-005	  6.10963E-005	  1.31914E-005	 -2.50559E-004	  8.12989E-005	  5.58168E-006	 -6.70255E-005
  7.20896E+001	 -4.00476E-005	  1.03468E-005	  4.85758E-005	 -1.86213E-005	  3.91414E-005	 -1.39747E-004	 -1.28166E-004	 -7.85401E-005
  7.86432E+001	  1.46558E-005	 -1.38481E-004	  1.23073E-004	 -4.79183E-005	  7.22927E-006	 -6.55129E-007	  5.44792E-005	 -9.21475E-005
  8.51968E+001	  8.94650E-005	 -9.45089E-005	 -1.53805E-004	 -8.31381E-005	  1.22375E-004	  1.23381E-004	  1.58699E-004	  3.99101E-005
  9.17504E+001	  5.57523E-005	 -1.80197E-005	 -5.24622E-005	  1.00127E-004	 -1.08278E-004	 -1.09126E-004	  6.10743E-005	  1.49098E-005
  9.83040E+001	  5.77864E-005	  4.38642E-006	 -1.24796E-005	 -8.75873E-005	 -1.01484E-005	  1.22042E-004	  7.15859E-005	 -3.20080E-005
  1.04858E+002	  7.95683E-006	 -3.11557E-005	 -3.36188E-005	  6.88961E-005	  4.90426E-005	 -6.23881E-005	 -6.09967E-005	  4.97531E-006
  1.17965E+002	 -5.92695E-006	  5.05519E-006	  1.14675E-004	 -1.00585E-005	  1.46756E-004	  1.04962E-004	  8.76784E-007	  4.71210E-005
  1.31072E+002	  2.01965E-005	  4.28701E-005	 -8.16126E-005	 -3.38603E-005	 -1.83016E-005	  2.87325E-005	 -3.00746E-006	 -5.05121E-005
  1.44179E+002	  2.28658E-005	 -2.44042E-005	  5.92947E-005	 -6.10079E-005	  6.55372E-005	  3.80233E-005	  8.61762E-005	  4.55522E-006
  1.57286E+002	  1.91728E-005	  7.74789E-005	 -6.47105E-005	  9.20398E-005	  1.34919E-004	 -8.63244E-005	  6.33239E-005	  1.25439E-004
  1.70394E+002	 -3.08736E-005	  1.74576E-005	  2.70974E-005	  1.64694E-004	 -1.09172E-005	  3.79843E-005	  3.78489E-005	 -3.24270E-005
  1.83501E+002	  1.02140E-004	 -4.53358E-005	  4.25566E-005	  6.53205E-005	  1.71996E-006	 -1.21040E-004	 -5.61785E-005	 -3.04920E-005
  1.96608E+002	 -1.59999E-005	 -5.14781E-005	  6.42296E-005	 -2.26944E-006	  2.07121E-005	 -3.62408E-005	 -4.33085E-005	  1.27170E-005
  2.09715E+002	  2.72609E-005	 -8.11305E-005	  6.13934E-005	 -9.18734E-005	  5.80802E-005	 -7.37534E-006	 -5.56067E-005	  5.49234E-005
  2.35930E+002	  6.21257E-006	  1.18580E-005	  1.69856E-005	 -8.17708E-005	 -7.65444E-005	  5.79853E-005	 -2.58220E-005	  2.55958E-005
  2.62144E+002	  1.07058E-005	  3.52620E-006	 -1.67776E-005	  2.22484E-005	  7.02309E-005	 -4.17166E-005	  5.89015E-005	 -1.26150E-005
  2.88358E+002	  2.25792E-005	 -2.08146E-005	  1.51541E-005	 -8.13352E-006	  1.29795E-004	 -3.20872E-005	 -2.71758E-005	 -2.17277E-005
  3.14573E+002	  1.93318E-005	 -4.32974E-005	 -5.39145E-005	  2.63244E-005	  7.54376E-005	  1.02738E-004	 -6.39363E-006	 -8.04189E-005
  3.40787E+002	  5.62812E-006	 -9.55129E-007	 -4.95435E-005	 -4.85485E-005	  1.43539E-006	 -2.42638E-005	  1.70701E-005	 -6.11168E-005
  3.67002E+002	  4.13155E-005	 -6.73605E-005	  3.88163E-005	 -6.13170E-005	 -3.12816E-006	 -1.45724E-004	  2.83318E-005	  5.59943E-006
  3.93216E+002	  7.38256E-005	  2.29951E-005	 -4.40904E-005	 -6.30311E-005	 -1.41861E-004	 -1.80592E-005	  2.71651E-005	  4.74814E-006
  4.19430E+002	  1.25504E-005	  5.60928E-005	 -1.58760E-005	 -5.75911E-005	 -6.70408E-005	 -6.16375E-005	 -3.57920E-005	  2.83641E-005
  4.71859E+002	  1.53722E-005	  4.04694E-005	 -3.40337E-005	  1.76527E-005	  3.72586E-005	 -5.33596E-005	  3.75999E-005	  1.07940E-005
  5.24288E+002	  2.56207E-005	 -3.28091E-006	  2.19617E-005	  5.35280E-005	  1.40344E-005	 -2.13068E-006	  5.97669E-006	 -3.42489E-005
  5.76717E+002	  4.15182E-006	  1.12954E-005	  6.04783E-005	 -2.62563E-005	  2.74080E-005	 -1.42215E-005	 -2.53961E-005	  2.85604E-005
  6.29146E+002	  2.44603E-005	 -2.84152E-005	 -3.89535E-005	 -1.22157E-007	  6.31374E-005	  3.68066E-005	 -2.25937E-006	  4.28917E-005
  6.81574E+002	  6.00058E-006	 -1.74082E-005	 -4.44045E-005	 -2.47224E-005	 -6.51961E-006	  3.07069E-005	 -9.99495E-006	  2.21187E-005
  7.34003E+002	  1.86203E-005	  8.31707E-007	 -1.25360E-005	 -6.69828E-005	 -4.12535E-005	 -3.54026E-006	 -2.48884E-005	 -2.10529E-006
  7.86432E+002	 -8.32288E-006	  9.58834E-006	  3.74421E-005	 -8.53834E-005	  5.49363E-005	 -1.12493E-005	 -2.56877E-005	 -1.85670E-005
  8.38861E+002	  1.03147E-005	  4.99369E-006	 -6.27115E-006	  1.11155E-005	 -1.77498E-005	 -2.72044E-006	 -2.69301E-006	  2.25343E-007
  9.43718E+002	  1.58586E-005	  5.43736E-006	 -3.11262E-006	  7.42137E-005	 -2.81308E-005	 -6.11888E-006	 -8.57016E-006	 -2.27559E-005
  1.04858E+003	 -2.22146E-005	 -2.32215E-005	 -2.75995E-005	  2.24972E-005	  1.26217E-005	 -1.44314E-005	 -1.32330E-005	  2.11384E-005
  1.15343E+003	  1.11396E-005	 -2.27034E-005	  1.12733E-005	  3.45400E-005	  2.08032E-005	 -1.34523E-005	  3.14303E-005	  3.26973E-005
  1.25829E+003	 -1.25046E-006	 -4.25200E-005	 -4.85147E-005	 -3.17621E-006	  2.70805E-005	  2.32386E-005	  1.93225E-005	 -7.47094E-006
  1.36315E+003	 -2.29112E-005	  6.00633E-009	  1.32461E-005	 -3.80372E-005	 -4.25849E-005	 -4.94895E-006	  5.07369E-006	  7.68586E-006
  1.46801E+003	  6.45447E-006	 -3.81690E-005	 -3.35161E-005	 -9.85045E-006	 -2.99205E-005	  1.06580E-005	  3.09275E-005	  1.89103E-005
  1.57286E+003	  1.57375E-005	 -3.53327E-005	 -3.43089E-005	 -3.09100E-005	 -1.04061E-005	  4.91184E-005	  1.76439E-005	 -1.23075E-005
  1.67772E+003	 -1.30337E-005	 -1.57113E-005	 -6.63180E-006	 -1.62301E-005	 -3.50830E-005	  5.29533E-006	 -1.91290E-006	 -2.24856E-005
  1.88744E+003	 -2.73247E-006	 -1.74243E-005	  1.58222E-005	  2.01083E-005	 -3.62191E-005	 -1.61724E-006	  9.05572E-006	 -1.38803E-005
  2.09715E+003	 -1.50818E-005	 -5.23502E-006	 -1.45764E-005	  2.24861E-006	 -5.75235E-005	 -1.81643E-005	 -2.55585E-005	  1.22638E-005
  2.30687E+003	  1.43046E-006	 -3.35024E-007	 -4.60574E-006	 -5.59441E-006	 -1.22438E-005	  5.53126E-006	 -1.08399E-005	 -2.28455E-005
  2.51658E+003	 -7.68080E-006	  3.42403E-005	  1.77989E-005	  1.51543E-007	 -2.13570E-005	 -3.54951E-005	 -1.08361E-005	 -1.19882E-005
  2.72630E+003	 -1.10276E-007	  2.38240E-005	 -2.24071E-005	  2.94770E-005	  1.76432E-005	  2.30498E-005	 -2.00897E-005	  1.12915E-005
  2.93601E+003	  6.46877E-006	 -5.17028E-006	  5.68294E-006	  1.62370E-005	  2.11218E-005	  4.36474E-005	  8.94045E-006	 -3.35626E-005
"Count Rate"
       0.11679	      43.67665	      29.33099	      24.17099	      18.66130	      17.93634	      22.29462	      23.15605	      32.47816
       0.23357	      44.84512	      29.52716	      23.48014	      18.64424	      18.29456	      21.98758	      23.73601	      32.51228
       0.35036	      43.06257	      29.39922	      23.83836	      18.41396	      18.03016	      22.64431	      24.56332	      32.70845
       0.46714	      43.34402	      30.47387	      24.44391	      19.14745	      19.15598	      22.11552	      23.07076	      31.50587
       0.58393	      43.70224	      29.30540	      24.36715	      19.35214	      18.70394	      22.84048	      23.66778	      32.68286
       0.70072	      42.56789	      29.13482	      23.82983	      17.70606	      18.64424	      22.46520	      24.57185	      32.09436
       0.81750	      45.55302	      29.73185	      23.99188	      18.03016	      18.58454	      22.22639	      24.12834	      32.49522
       0.93429	      44.49543	      28.80220	      24.10276	      18.25191	      18.23485	      22.75519	      24.30745	      31.69350
       1.05107	      42.67877	      29.36511	      24.50362	      19.16451	      18.00457	      21.54408	      23.52279	      31.46322
       1.16786	      42.80670	      30.04742	      23.97482	      19.85535	      18.67836	      21.76583	      24.42686	      31.13912
       1.28465	      43.36108	      29.91949	      24.82771	      18.40543	      18.38837	      21.99611	      24.22216	      31.93231
       1.40143	      43.59989	      29.64656	      23.79572	      17.65489	      18.26044	      22.71254	      24.00894	      32.14554
       1.51822	      43.24168	      28.92160	      24.20510	      18.95981	      18.38837	      22.49932	      23.80424	      31.77879
       1.63500	      42.85788	      29.39922	      23.96629	      19.03657	      19.27538	      22.58461	      23.76160	      32.16259
       1.75179	      43.35255	      29.85979	      23.94071	      18.49925	      18.21779	      22.26051	      24.47803	      32.52081
       1.86858	      43.48048	      29.56127	      23.79572	      18.36279	      18.07280	      21.86818	      24.21363	      32.17965
       1.98536	      43.67665	      29.59539	      23.95777	      18.10692	      17.81693	      22.77224	      24.52067	      32.17965
       2.10215	      43.13080	      29.03248	      24.18805	      18.82335	      18.00457	      21.98758	      23.58249	      33.56134
       2.21894	      43.56578	      29.39069	      23.94071	      18.18368	      18.56748	      22.73813	      24.93859	      31.89820
       2.33572	      43.23315	      29.37364	      24.20510	      18.73806	      18.48219	      21.98758	      23.07928	      32.22230
       2.45251	      44.77688	      28.73396	      23.73601	      18.21779	      18.37132	      22.07287	      24.65714	      33.10931
       2.56929	      43.90693	      28.93013	      23.17310	      18.26897	      18.26897	      21.91082	      23.82130	      31.55704
       2.68608	      44.62336	      30.13271	      23.84689	      18.65277	      17.54401	      21.85965	      23.60808	      31.94937
       2.80287	      44.12868	      29.67215	      24.87889	      18.58454	      18.57601	      21.39909	      24.35010	      31.65939
       2.91965	      42.92611	      28.96425	      24.29892	      18.32867	      18.10692	      22.02170	      23.95777	      32.33318
       3.03644	      42.83229	      29.34805	      23.93218	      18.79776	      17.97046	      22.47373	      23.82983	      32.06025
       3.15322	      43.30991	      29.48451	      23.60808	      17.83399	      17.78282	      21.92788	      23.66778	      31.49734
       3.27001	      43.71077	      30.31182	      23.13046	      17.97898	      18.56748	      22.72107	      24.28186	      32.83638
       3.38680	      42.55936	      28.46957	      23.61661	      18.55042	      18.56748	      21.63790	      24.83624	      32.45258
       3.50358	      43.23315	      29.02395	      23.73601	      17.77429	      18.15809	      21.75730	      23.24133	      32.78521
       3.62037	      43.72783	      29.93654	      24.23069	      18.96834	      18.62718	      22.63578	      23.64219	      31.65086
       3.73715	      42.78964	      29.80008	      23.93218	      18.82335	      18.05574	      21.97905	      24.83624	      31.87261
       3.85394	      44.83659	      29.92802	      23.43750	      18.45660	      18.04722	      22.40550	      24.69978	      32.83638
       3.97073	      45.13510	      29.68921	      24.35863	      18.81482	      18.18368	      22.18375	      23.87247	      32.39288
       4.08751	      43.55725	      30.22653	      24.40127	      19.07922	      18.88305	      22.18375	      24.25628	      31.52293
       4.20430	      43.19050	      29.02395	      23.57396	      18.84894	      18.52484	      22.41403	      23.97482	      32.72551
       4.32108	      43.92399	      29.68068	      24.04305	      18.59307	      18.51631	      23.22428	      24.66567	      32.65727
       4.43787	      44.06045	      29.34805	      23.73601	      18.37132	      17.82546	      23.02811	      24.37568	      31.74468
       4.55466	      43.97516	      29.86831	      23.92365	      18.44808	      18.15809	      22.79783	      23.88100	      32.44405
       4.67144	      43.86429	      28.85337	      24.18805	      18.57601	      18.73806	      21.87671	      24.38421	      32.78521
       4.78823	      43.54872	      29.65509	      23.68484	      18.17515	      19.41184	      21.25409	      23.64219	      32.40141
       4.90501	      43.44637	      29.95360	      23.89806	      18.51631	      18.66983	      21.79995	      24.35010	      32.78521
       5.02180	      42.68729	      28.94719	      22.87459	      18.62718	      18.37984	      22.83195	      24.52920	      31.81291
       5.13859	      42.46554	      29.23717	      23.55691	      18.61013	      19.03657	      22.31168	      25.09211	      32.33318
       5.25537	      43.18197	      29.48451	      24.48656	      18.64424	      18.55042	      21.53555	      24.09423	      32.40993
       5.37216	      43.77047	      29.56127	      24.38421	      19.19009	      17.81693	      22.01317	      23.71043	      31.87261
       5.48894	      44.06045	      29.27982	      24.05158	      18.72100	      18.89158	      21.85112	      24.11129	      32.83638
       5.60573	      44.13721	      29.36511	      23.89806	      18.98540	      18.34573	      22.15816	      23.81277	      32.04319
       5.72252	      43.20756	      29.80861	      24.43538	      18.72953	      18.31161	      22.49932	      23.59955	      32.26494
       5.83930	      43.03698	      29.20306	      23.86395	      18.59307	      19.11333	      22.87459	      24.80213	      32.26494
       5.95609	      42.33761	      28.74249	      24.04305	      18.17515	      18.51631	      21.56114	      23.17310	      32.87049
       6.07287	      43.59989	      28.93013	      23.57396	      18.40543	      19.49714	      21.52702	      24.35863	      33.36517
       6.18966	      43.05404	      29.14335	      24.04305	      18.25191	      18.43955	      22.32874	      25.46739	      32.03466
       6.30645	      43.19050	      29.67215	      23.55691	      18.21779	      18.76365	      21.03234	      24.69978	      31.42911
       6.42323	      43.18197	      29.34805	      23.65072	      18.55042	      18.10692	      22.62725	      24.51215	      31.48028
       6.54002	      42.80670	      29.83420	      24.87036	      18.12398	      18.49072	      22.41403	      23.67631	      31.90673
       6.65680	      43.72783	      29.57833	      23.60808	      18.49925	      18.17515	      22.32021	      24.14540	      32.91314
       6.77359	      43.59136	      29.74038	      23.98335	      18.18368	      17.90222	      22.00464	      23.99188	      31.24147
       6.89038	      43.74488	      28.86190	      24.68272	      18.97687	      18.64424	      22.14963	      23.98335	      31.60822
       7.00716	      43.37814	      29.01542	      24.22216	      18.58454	      17.58665	      21.64643	      24.00894	      31.76174
       7.12395	      43.72783	      29.66362	      23.31809	      18.15809	      18.82335	      22.29462	      24.00894	      32.86197
       7.24074	      44.26515	      29.80008	      24.49509	      18.77217	      18.55042	      23.17310	      24.31598	      31.90673
       7.35752	      43.77047	      30.09007	      23.39486	      18.43955	      18.35426	      23.14752	      23.94924	      31.69350
       7.47431	      44.17133	      28.90454	      24.29892	      18.84894	      17.70606	      21.88523	      23.70190	      32.21377
       7.59109	      44.79394	      29.81714	      23.41191	      18.99393	      18.85746	      22.36285	      24.28186	      31.84702
       7.70788	      43.19050	      29.11777	      24.46950	      18.71247	      18.55042	      21.86818	      24.29039	      31.56557
       7.82467	      43.65107	      29.72332	      23.96629	      18.24338	      17.93634	      22.07287	      24.25628	      32.62316
       7.94145	      44.58072	      29.16041	      24.89595	      18.78923	      17.68900	      22.18375	      24.81919	      31.49734
       8.05824	      44.63189	      28.52927	      24.11981	      18.71247	      18.68689	      23.14752	      24.11981	      32.41846
       8.17502	      43.89840	      28.69985	      22.92576	      18.85746	      18.98540	      21.98758	      24.03452	      32.40993
       8.29181	      43.82164	      30.49092	      24.31598	      18.70394	      18.53337	      22.37138	      23.75307	      32.85344
       8.40860	      44.33338	      29.20306	      23.88953	      18.94275	      18.42249	      22.19228	      24.39274	      32.23936
       8.52538	      43.38667	      28.98130	      24.33304	      19.17303	      18.50778	      22.71254	      24.52920	      31.95790
       8.64217	      43.57430	      29.41628	      23.77866	      18.70394	      18.28603	      21.72318	      24.75948	      31.89820
       8.75895	      44.48690	      29.25423	      24.15393	      18.29456	      18.94275	      22.80636	      24.45244	      32.58904
       8.87574	      44.46984	      29.52716	      24.56332	      18.49925	      18.44808	      22.83195	      24.69978	      31.66792
       8.99253	      42.74700	      29.61245	      24.56332	      18.17515	      18.18368	      21.99611	      24.37568	      32.12848
       9.10931	      42.90905	      30.23506	      23.25839	      18.26897	      18.07280	      22.97694	      23.82983	      31.81291
       9.22610	      43.25021	      29.94507	      23.74454	      19.48008	      18.86599	      22.66137	      24.95565	      32.52081
       9.34288	      42.44849	      30.12418	      23.48867	      18.96834	      18.32014	      22.45667	      24.35863	      32.11995
       9.45967	      44.51249	      29.24570	      24.29892	      18.35426	      17.78282	      22.72960	      23.59955	      32.46964
       9.57646	      42.08174	      29.61245	      23.95777	      18.03016	      18.20074	      22.09846	      24.35010	      32.54640
       9.69324	      43.53166	      29.91949	      23.72748	      19.04510	      17.98751	      22.11552	      23.76160	      32.35876
       9.81003	      43.03698	      29.28835	      23.74454	      18.32867	      17.92781	      21.74024	      24.26481	      31.88967
       9.92681	      43.39520	      29.13482	      23.17310	      17.51842	      18.41396	      22.82342	      24.73390	      32.94726
      10.04360	      43.25021	      30.06448	      22.93429	      18.72100	      18.22632	      21.98758	      23.77013	      32.50375
      10.16039	      42.38878	      29.42481	      23.78719	      19.34361	      19.01098	      22.31168	      24.16246	      32.29906
      10.27717	      44.06045	      28.75955	      23.69337	      19.23274	      19.34361	      22.39697	      24.53773	      32.19671
      10.39396	      43.36961	      29.38216	      23.78719	      19.25832	      18.98540	      22.65284	      25.05800	      31.77027
      10.51074	      43.40372	      29.49304	      24.73390	      18.63571	      17.80841	      22.73813	      24.56332	      32.37582
      10.62753	      44.76835	      29.66362	      24.43538	      18.42249	      18.55042	      22.35433	      24.75948	      32.89608
      10.74432	      43.97516	      28.87896	      24.21363	      18.43102	      17.93634	      21.78289	      24.64008	      32.75109
      10.86110	      43.73635	      29.66362	      24.11981	      18.12398	      18.85746	      21.99611	      24.08570	      31.16471
      10.97789	      43.96664	      29.00689	      24.15393	      18.23485	      18.58454	      21.87671	      24.01747	      31.76174
      11.09467	      43.99222	      29.62097	      25.16887	      18.97687	      18.10692	      23.05370	      23.88100	      32.06878
      11.21146	      45.20333	      28.81926	      24.69978	      18.38837	      19.06216	      22.35433	      24.74243	      32.29053
      11.32825	      44.70012	      30.38858	      24.51215	      18.36279	      18.42249	      22.56755	      24.46950	      32.51228
      11.44503	      43.58283	      29.76597	      24.00894	      18.90864	      17.85958	      22.13257	      24.07717	      32.30759
      11.56182	      44.02634	      29.60392	      23.90659	      18.20927	      18.03016	      22.22639	      23.67631	      31.48881
      11.67861	      44.11163	      29.49304	      24.23922	      18.63571	      18.47366	      22.09846	      23.84689	      32.26494
      11.79539	      44.70012	      30.45681	      24.17099	      19.03657	      17.99604	      21.11763	      23.81277	      33.16048
      11.91218	      44.23956	      29.60392	      23.84689	      18.71247	      19.00246	      22.86606	      24.72537	      32.17112
      12.02896	      43.01992	      29.74038	      23.81277	      18.65277	      18.75512	      22.64431	      24.63155	      31.40352
      12.14575	      44.36749	      28.80220	      23.70190	      18.78923	      18.48219	      21.65495	      24.00041	      32.00055
      12.26254	      43.88134	      30.32035	      24.29039	      18.49072	      18.55895	      21.33938	      24.46097	      32.46964
      12.37932	      43.02845	      29.99625	      24.39274	      18.36279	      17.90222	      22.21786	      24.85330	      33.05813
      12.49611	      43.79605	      29.20306	      24.45244	      18.17515	      18.63571	      22.43109	      24.16246	      32.01760
      12.61289	      43.70224	      29.79155	      23.67631	      18.43955	      18.99393	      21.57819	      25.34798	      32.18818
      12.72968	      44.12016	      29.22864	      24.24775	      18.81482	      18.45660	      21.58672	      24.35010	      31.34382
      12.84647	      43.48901	      28.73396	      23.00253	      18.46513	      18.35426	      21.85112	      24.16246	      32.72551
      12.96325	      43.17344	      28.54633	      23.36927	      19.21568	      18.76365	      22.61872	      24.10276	      31.94084
      13.08004	      44.29073	      29.29688	      24.02600	      18.27750	      18.81482	      22.44814	      23.76160	      31.86408
      13.19682	      45.28009	      29.98772	      23.26692	      19.01951	      19.19009	      21.32232	      24.91301	      32.51228
      13.31361	      43.45490	      29.35658	      24.11129	      18.38837	      19.13039	      22.84048	      24.39274	      33.11784
      13.43040	      43.83870	      29.50157	      24.53773	      18.72953	      18.75512	      22.51638	      24.64861	      31.71909
      13.54718	      44.28220	      29.32246	      23.82130	      18.42249	      18.82335	      22.03023	      25.05800	      32.11142
      13.66397	      44.48690	      29.15188	      24.54626	      19.01098	      18.61865	      22.02170	      25.59532	      32.54640
      13.78075	      44.46131	      29.43334	      23.46309	      18.69542	      18.52484	      21.69760	      24.22216	      32.25641
      13.89754	      44.53807	      29.58686	      24.58891	      18.49072	      18.25191	      21.89376	      24.07717	      33.21165
      14.01433	      43.71077	      30.14124	      24.15393	      18.44808	      18.32014	      22.56755	      24.02600	      32.50375
      14.13111	      44.54660	      28.65721	      24.39274	      18.86599	      18.72953	      22.69548	      24.30745	      32.03466
      14.24790	      43.77900	      29.65509	      25.04094	      19.36920	      17.53548	      22.34580	      24.29039	      33.05813
      14.36468	      44.03487	      29.88537	      24.12834	      18.95128	      18.56748	      22.59314	      24.05158	      32.40141
      14.48147	      44.13721	      30.89178	      24.18805	      18.85746	      18.36279	      22.21786	      23.86395	      31.87261
      14.59826	      44.37602	      29.27982	      23.88100	      19.41184	      18.14104	      22.24345	      24.11981	      33.10931
      14.71504	      43.64254	      29.76597	      24.16246	      18.67836	      18.48219	      21.97905	      24.58891	      32.15407
      14.83183	      43.84723	      29.12630	      24.35863	      19.29244	      18.23485	      22.09846	      23.90659	      32.09436
      14.94861	      43.81311	      29.92802	      24.17099	      18.20927	      19.25832	      21.11763	      23.92365	      32.58904
      15.06540	      44.30779	      30.14124	      24.62302	      18.34573	      18.63571	      22.66990	      24.02600	      33.73192
      15.18219	      44.57219	      30.59327	      23.76160	      18.20074	      19.30097	      22.17522	      24.42686	      33.33959
      15.29897	      44.41867	      29.04101	      24.23069	      18.55895	      18.72953	      22.58461	      24.64008	      32.00055
      15.41576	      43.83870	      29.57833	      24.36715	      18.51631	      18.11545	      22.06434	      24.72537	      31.30117
      15.53254	      43.88987	      29.60392	      23.52279	      19.29244	      18.68689	      21.56114	      23.80424	      32.02613
      15.64933	      44.23103	      28.67426	      24.73390	      18.41396	      18.90864	      23.28398	      24.81066	      31.88967
      15.76612	      42.26085	      30.07301	      24.29892	      19.23274	      18.89158	      21.80847	      24.57185	      32.45258
      15.88290	      43.81311	      29.33099	      24.22216	      18.01310	      18.48219	      22.37138	      23.74454	      31.94937
      15.99969	      43.22462	      29.37364	      24.00041	      19.44596	      19.20715	      21.55261	      23.46309	      31.98349
      16.11647	      43.56578	      28.84484	      23.49720	      18.30308	      18.30308	      22.56755	      24.24775	      32.46964
      16.23326	      43.01139	      29.43334	      23.76160	      18.45660	      19.05363	      22.06434	      24.20510	      32.02613
      16.35005	      45.17774	      28.50368	      23.65925	      18.02163	      18.36279	      22.45667	      23.91512	      31.57410
      16.46683	      43.01139	      29.24570	      23.87247	      18.46513	      19.42037	      21.62937	      24.46097	      32.06025
      16.58362	      43.19050	      29.28835	      23.98335	      18.76365	      18.67836	      22.41403	      24.46097	      31.82997
      16.70041	      43.64254	      29.90243	      24.98977	      18.54189	      18.14956	      22.98547	      24.18805	      32.37582
      16.81719	      43.37814	      29.41628	      24.33304	      18.45660	      18.20074	      22.13257	      24.31598	      32.51228
      16.93398	      43.76194	      29.78302	      24.04305	      18.24338	      18.44808	      22.90871	      24.14540	      32.14554
      17.05076	      42.98581	      29.33952	      23.49720	      18.36279	      17.71459	      22.74666	      23.93218	      32.36729
      17.16755	      43.34402	      29.17747	      24.12834	      18.28603	      18.12398	      21.76583	      24.44391	      32.63169
      17.28433	      44.93893	      29.04954	      23.85542	      18.56748	      18.14104	      22.29462	      24.71684	      30.86620
      17.40112	      43.19903	      28.86190	      23.96629	      18.66983	      18.52484	      22.20081	      24.30745	      32.51228
      17.51791	      44.22250	      30.09859	      24.14540	      18.52484	      17.88517	      22.82342	      23.53132	      32.11142
      17.63469	      42.88346	      29.21159	      23.73601	      19.08775	      18.10692	      22.67842	      23.86395	      32.64022
      17.75148	      43.53166	      29.02395	      24.17952	      18.58454	      18.37984	      21.60378	      24.09423	      32.40993
      17.86827	      44.46984	      29.51863	      24.96418	      18.44808	      18.57601	      22.18375	      24.66567	      32.72551
      17.98505	      43.63401	      30.16683	      23.88953	      18.69542	      18.72100	      21.59525	      23.83836	      31.75321
      18.10184	      43.19903	      29.28835	      23.49720	      18.41396	      18.12398	      22.34580	      24.00894	      32.29053
      18.21862	      42.84082	      28.87043	      25.20299	      19.18156	      17.87664	      22.94282	      23.95777	      32.82785
      18.33541	      43.17344	      29.40775	      23.67631	      18.20074	      18.36279	      21.99611	      23.94071	      31.77027
      18.45220	      44.29926	      29.83420	      24.60596	      18.22632	      18.66983	      21.89376	      23.82983	      32.86197
      18.56898	      43.30138	      29.19453	      23.70190	      18.95981	      17.68900	      22.93429	      24.36715	      31.91526
      18.68577	      43.68518	      28.77661	      23.89806	      18.20927	      18.29456	      21.55261	      23.82983	      32.00908
      18.80255	      44.12868	      28.44398	      23.84689	      18.96834	      18.59307	      22.76371	      24.03452	      32.16259
      18.91934	      43.88134	      30.03036	      23.79572	      18.46513	      18.37132	      22.37991	      23.81277	      32.52081
      19.03613	      44.54660	      29.86831	      24.15393	      18.28603	      17.90222	      22.29462	      24.10276	      32.46964
      19.15291	      43.96664	      29.99625	      23.33515	      18.47366	      17.77429	      22.84900	      24.54626	      32.60610
      19.26970	      43.35255	      29.43334	      23.94071	      18.58454	      19.24127	      21.74024	      23.61661	      31.89820
      19.38648	      43.60842	      28.93013	      23.66778	      17.71459	      18.99393	      21.60378	      24.42686	      33.21165
      19.50327	      43.67665	      29.33099	      23.55691	      19.24980	      18.99393	      21.83406	      24.91301	      31.69350
      19.62006	      44.30779	      29.18600	      24.26481	      17.66341	      18.94275	      21.40761	      23.87247	      32.06878
      19.73684	      43.43784	      29.93654	      24.50362	      18.69542	      17.99604	      22.14963	      24.07717	      31.81291
      19.85363	      43.49754	      29.13482	      24.16246	      18.12398	      19.27538	      21.82553	      24.32451	      32.23936
      19.97042	      44.10310	      30.20947	      23.63367	      18.61013	      18.43955	      22.19228	      24.74243	      32.91314
      20.08720	      43.05404	      30.37152	      24.96418	      18.53337	      18.66983	      22.27757	      24.11129	      32.19671
      20.20399	      43.17344	      28.89602	      24.14540	      18.67836	      18.26897	      22.50785	      24.88742	      31.10501
      20.32077	      43.60842	      29.68921	      24.61449	      18.98540	      18.33720	      23.35221	      24.01747	      32.08583
      20.43756	      44.70865	      29.03248	      24.30745	      18.46513	      19.15598	      22.21786	      24.23922	      32.55493
      20.55434	      43.07963	      29.25423	      23.63367	      19.35214	      18.48219	      21.90229	      24.48656	      32.61463
      20.67113	      43.78753	      29.60392	      23.93218	      18.77217	      19.58242	      22.17522	      23.92365	      32.29053
      20.78792	      43.23315	      29.63803	      24.42686	      18.57601	      17.93634	      22.16669	      23.87247	      32.45258
      20.90470	      44.99863	      29.01542	      24.64008	      17.91075	      18.52484	      22.51638	      24.32451	      31.45469
      21.02149	      43.74488	      28.39281	      23.37780	      17.94487	      18.43955	      21.86818	      24.14540	      32.22230
      21.13828	      43.90693	      29.53568	      22.98547	      19.37773	      18.14104	      21.56114	      24.58038	      32.10289
      21.25506	      43.89840	      28.85337	      23.90659	      18.76365	      18.27750	      22.17522	      24.67419	      31.91526
      21.37185	      43.67665	      29.13482	      23.60808	      17.81693	      18.30308	      21.50143	      24.55479	      32.53787
      21.48863	      44.23956	      29.83420	      23.63367	      18.74659	      18.01310	      22.12404	      25.10917	      33.12637
      21.60542	      43.03698	      28.98130	      23.66778	      18.41396	      18.17515	      22.31168	      24.39274	      32.20524
      21.72220	      43.61695	      29.41628	      24.41833	      17.94487	      18.03869	      22.43109	      24.64861	      31.95790
      21.83899	      44.59777	      28.91307	      24.88742	      17.97898	      17.79988	      22.84048	      23.88100	      31.69350
      21.95578	      44.30779	      29.08365	      23.78719	      18.05574	      18.34573	      22.41403	      23.52279	      32.09436
      22.07256	      43.90693	      28.68279	      24.41833	      18.18368	      18.63571	      22.08993	      23.70190	      31.72762
      22.18935	      43.97516	      29.31393	      25.01535	      18.46513	      18.94275	      22.00464	      24.11129	      31.31823
      22.30614	      44.00075	      29.51863	      24.11129	      18.48219	      18.33720	      21.97052	      24.77654	      31.99202
      22.42292	      44.13721	      30.52504	      24.00894	      18.75512	      17.97046	      21.41614	      23.88953	      30.86620
      22.53971	      43.70224	      29.27982	      24.06011	      19.11333	      18.12398	      22.46520	      23.72748	      33.55281
      22.65649	      44.74277	      30.15830	      24.09423	      18.71247	      18.84894	      22.82342	      23.88100	      32.63169
      22.77328	      43.64254	      29.93654	      24.33304	      18.52484	      18.81482	      22.14110	      24.55479	      32.02613
      22.89007	      43.71077	      30.09859	      24.26481	      18.34573	      18.15809	      22.38844	      23.79572	      31.30117
      23.00685	      44.37602	      29.01542	      23.15605	      19.06216	      18.78070	      21.79142	      23.78719	      31.74468
      23.12364	      44.47837	      29.39922	      23.71895	      18.21779	      18.61865	      22.25198	      23.89806	      31.45469
      23.24042	      42.61906	      29.18600	      22.94282	      18.70394	      18.88305	      21.68907	      24.07717	      31.70203
      23.35721	      43.72783	      28.98130	      24.33304	      18.67836	      19.20715	      22.23492	      23.83836	      31.53145
      23.47400	      43.99222	      29.90243	      24.68272	      18.63571	      18.20927	      21.15175	      24.30745	      32.29906
      23.59078	      44.29926	      29.02395	      24.52067	      18.98540	      18.44808	      21.92788	      23.40339	      31.40352
      23.70757	      43.76194	      28.68279	      23.35221	      18.77217	      18.41396	      22.86606	      24.70831	      32.17965
      23.82435	      43.77047	      29.49304	      24.23922	      19.01951	      18.40543	      22.14110	      24.40980	      30.82355
      23.94114	      43.23315	      29.27982	      24.21363	      18.38837	      19.09628	      22.32874	      24.77654	      31.94084
      24.05793	      42.22673	      28.95572	      23.30957	      18.23485	      18.48219	      22.13257	      24.00041	      32.54640
      24.17471	      43.60842	      29.57833	      23.67631	      18.14956	      18.35426	      21.68054	      24.20510	      32.08583
      24.29150	      44.41014	      28.76808	      23.57396	      18.90011	      18.86599	      22.07287	      23.94071	      32.29906
      24.40828	      43.20756	      29.39922	      23.60808	      18.43102	      19.11333	      22.97694	      22.90871	      31.18177
      24.52507	      44.64042	      28.66573	      23.79572	      18.21779	      18.78923	      22.13257	      23.52279	      31.14765
      24.64186	      45.23745	      28.85337	      23.93218	      18.80629	      18.20927	      22.42256	      24.43538	      32.58051
      24.75864	      44.51249	      29.32246	      23.80424	      18.72100	      18.31161	      22.27757	      24.40980	      32.42699
      24.87543	      43.35255	      30.03036	      23.77013	      19.09628	      17.73165	      22.42256	      23.90659	      32.06025
      24.99221	      43.93252	      29.60392	      24.11129	      18.11545	      18.83188	      21.52702	      24.42686	      32.32465
      25.10900	      42.82376	      29.79155	      23.77866	      17.07492	      18.37132	      21.77436	      24.47803	      32.11142
      25.22579	      43.45490	      29.56127	      23.91512	      18.43102	      17.99604	      22.08140	      24.46097	      32.93020
      25.34257	      43.86429	      30.35446	      23.90659	      18.53337	      18.99393	      21.50996	      24.62302	      32.31612
      25.45936	      43.84723	      29.64656	      23.77013	      18.87452	      18.80629	      22.49932	      25.16034	      31.97496
      25.57615	      43.88987	      29.52716	      24.12834	      18.57601	      18.49072	      22.48226	      24.70831	      32.50375
      25.69293	      43.78753	      29.44187	      23.42044	      18.72100	      18.57601	      22.47373	      24.24775	      32.36729
      25.80972	      42.99434	      28.86190	      24.38421	      19.21568	      18.35426	      21.33085	      24.29039	      32.87902
      25.92650	      44.31632	      29.75744	      24.40127	      18.10692	      18.17515	      22.08140	      23.86395	      33.38223
      26.04329	      42.63612	      29.62950	      23.89806	      18.04722	      18.23485	      22.55049	      24.54626	      32.03466
      26.16007	      43.43784	      29.83420	      24.11129	      18.32014	      18.53337	      22.70401	      24.48656	      32.67433
      26.27686	      43.30138	      29.80861	      24.02600	      18.43102	      18.21779	      21.66348	      23.67631	      32.56345
      26.39365	      43.23315	      29.37364	      23.51426	      18.40543	      18.42249	      22.27757	      24.69125	      31.40352
      26.51043	      43.50607	      29.15188	      24.00041	      19.02804	      18.95981	      21.58672	      23.61661	      31.73615
      26.62722	      43.31844	      30.66150	      24.10276	      17.93634	      18.89158	      21.62937	      24.87889	      31.63380
      26.74401	      42.72141	      29.25423	      24.62302	      18.78070	      18.14104	      22.27757	      25.14329	      31.34382
      26.86079	      43.45490	      28.77661	      24.30745	      18.26897	      19.53978	      22.04729	      24.87889	      32.62316
      26.97758	      43.30991	      28.74249	      24.00041	      18.37132	      17.51842	      21.93641	      24.10276	      32.20524
      27.09436	      43.85576	      29.31393	      24.29039	      18.33720	      18.04722	      21.74024	      24.93006	      32.21377
      27.21115	      43.30991	      30.33740	      24.46097	      18.78923	      18.22632	      22.76371	      24.70831	      33.03255
      27.32793	      43.22462	      29.26276	      23.95777	      18.09839	      18.79776	      22.56755	      23.95777	      32.21377
      27.44472	      43.95811	      29.82567	      24.06011	      18.49072	      18.80629	      22.65284	      24.37568	      32.48669
      27.56151	      43.34402	      29.21159	      23.56543	      18.56748	      18.96834	      21.62084	      23.37780	      31.96643
      27.67829	      42.61053	      28.52927	      23.86395	      18.11545	      18.71247	      21.54408	      24.07717	      32.69992
      27.79508	      44.30779	      29.13482	      24.61449	      18.66130	      18.49925	      22.66990	      23.71043	      32.03466
      27.91187	      44.48690	      28.85337	      24.00041	      18.57601	      18.37132	      21.45026	      24.31598	      31.94937
      28.02865	      43.77047	      29.23717	      24.60596	      18.42249	      18.36279	      22.49079	      24.04305	      31.45469
      28.14544	      43.70224	      28.36722	      23.57396	      18.08133	      18.74659	      22.37991	      24.64008	      32.13701
      28.26222	      42.92611	      29.67215	      23.28398	      18.00457	      18.33720	      22.08993	      24.50362	      32.11142
      28.37901	      43.49754	      29.70626	      24.17952	      19.48861	      17.92781	      22.50785	      24.12834	      32.36729
      28.49580	      43.21609	      29.69773	      23.71895	      17.94487	      18.33720	      22.90018	      24.05158	      32.76815
      28.61258	      44.19691	      29.13482	      24.80213	      18.66130	      18.32014	      22.28609	      23.52279	      31.13059
      28.72937	      44.05193	      29.74891	      24.09423	      19.42890	      18.19221	      23.00253	      24.51215	      32.07730
      28.84615	      43.81311	      29.91096	      24.43538	      18.48219	      18.61013	      21.73171	      24.38421	      31.12207
      28.96294	      44.63189	      30.09007	      23.47161	      18.61865	      18.66130	      22.09846	      24.06864	      32.07730
      29.07973	      44.52102	      28.65721	      23.24986	      18.13251	      18.86599	      22.69548	      23.53132	      32.31612
      29.19651	      43.63401	      30.03889	      23.71895	      18.45660	      18.29456	      21.58672	      23.96629	      32.36729
      29.31330	      43.40372	      29.78302	      23.54838	      18.61865	      18.36279	      22.52490	      23.77013	      33.01549
      29.43008	      43.41225	      29.85126	      24.52920	      18.37984	      18.50778	      21.68054	      24.39274	      32.01760
      29.54687	      43.91546	      29.56127	      24.01747	      18.94275	      18.04722	      20.77647	      24.19658	      33.23724
      29.66366	      43.44637	      29.33952	      23.83836	      19.03657	      17.83399	      22.61019	      23.71895	      31.91526

Monitor Diode	1567485.38
