ALV-7004 CGS-8F Data, Single Run Data
Date :	"11.05.2021"
Time :	"09:23:59"
Samplename : 	"092 2021 Toluol"
SampMemo(0) : 	"Toluol-Messung "
SampMemo(1) : 	""
SampMemo(2) : 	""
SampMemo(3) : 	""
SampMemo(4) : 	""
SampMemo(5) : 	""
SampMemo(6) : 	""
SampMemo(7) : 	""
SampMemo(8) : 	""
SampMemo(9) : 	""
Temperature [K] :	     292.94557
Viscosity [cp]  :	       1.00678
Refractive Index:	       1.33200
Wavelength [nm] :	     632.80000
Angle(1)[°]     :	      34.00000
Angle(2)[°]     :	      50.00000
Angle(3)[°]     :	      66.00000
Angle(4)[°]     :	      82.00000
Angle(5)[°]     :	      98.00000
Angle(6)[°]     :	     114.00000
Angle(7)[°]     :	     130.00000
Angle(8)[°]     :	     146.00000
Duration [s]    :	          30.0
Runs            :	         1
Mode            :	"8 x AUTO, 100 ns STC"
MeanCR1 [kHz]   :	      38.60830
MeanCR2 [kHz]   :	      27.10392
MeanCR3 [kHz]   :	      23.57533
MeanCR4 [kHz]   :	      18.77778
MeanCR5 [kHz]   :	      18.03682
MeanCR6 [kHz]   :	      22.42685
MeanCR7 [kHz]   :	      25.76525
MeanCR8 [kHz]   :	      35.29639
Atten[1]        :	       1.00000
Atten[2]        :	       1.00000
Atten[3]        :	       1.00000
RelSens[1]      :	       1.00000
RelSens[2]      :	       1.00000
RelSens[3]      :	       1.00000
RelSens[4]      :	       1.00000
RelSens[5]      :	       1.00000
RelSens[6]      :	       1.00000
RelSens[7]      :	       1.00000
RelSens[8]      :	       1.00000
DC[1][kHz]      :	       0.00000
DC[2][kHz]      :	       0.00000
DC[3][kHz]      :	       0.00000
DC[4][kHz]      :	       0.00000
DC[5][kHz]      :	       0.00000
DC[6][kHz]      :	       0.00000
DC[7][kHz]      :	       0.00000
DC[8][kHz]      :	       0.00000

"Correlation"
  1.00000E-004	 -1.13530E-001	  1.54040E-001	 -8.11161E-002	  6.64890E-002	  2.51202E-002	  1.83561E-001	  2.19089E-001	 -1.17993E-001
  2.00000E-004	  3.98353E-002	  1.27042E-001	  5.14790E-002	  1.05951E-001	  7.85513E-002	  9.46175E-002	  1.33754E-001	  3.62501E-002
  3.00000E-004	  8.38600E-003	  5.06916E-002	  4.29880E-004	  5.08581E-002	  2.25196E-002	  3.71718E-002	  3.88864E-002	  1.60609E-002
  4.00000E-004	  5.70946E-003	  5.87284E-002	  1.83302E-002	 -2.88339E-002	  1.28264E-002	  3.73218E-002	  4.35390E-002	 -5.02319E-003
  5.00000E-004	  1.32038E-002	  2.94693E-002	  4.94900E-002	 -1.19217E-002	 -3.63492E-002	  2.59226E-002	  2.49286E-002	 -1.38802E-003
  6.00000E-004	  1.54788E-002	  2.97204E-002	 -1.08407E-002	 -1.34592E-002	 -1.31799E-002	  1.92446E-003	  1.85739E-002	  5.88234E-003
  7.00000E-004	  1.06610E-002	  2.82135E-002	 -9.18328E-003	 -1.34592E-002	 -1.17614E-002	  4.00216E-002	  1.47157E-002	  6.66531E-003
  8.00000E-004	  9.85806E-003	  4.12734E-002	 -8.96111E-004	  5.50285E-003	 -1.35892E-003	  3.85217E-002	 -3.66771E-003	 -1.52577E-002
  9.00000E-004	  3.79617E-002	  5.68447E-002	 -4.46525E-002	 -4.74693E-003	  1.47813E-003	 -4.54720E-002	  1.67582E-002	  5.32306E-003
  1.00000E-003	 -1.98515E-002	  2.41951E-002	  9.04852E-003	  1.67776E-002	  9.22637E-002	  5.47205E-002	  3.59485E-003	 -2.50656E-003
  1.10000E-003	 -1.47661E-002	  1.31444E-002	  9.71149E-003	 -8.84684E-003	 -1.08157E-002	  8.52393E-003	  4.17479E-004	 -7.87544E-003
  1.20000E-003	  3.42146E-002	 -1.34776E-002	  2.76118E-002	  1.88276E-002	 -5.14165E-003	  4.92421E-003	  9.04177E-003	  1.49423E-002
  1.30000E-003	 -2.45402E-003	 -4.43618E-003	 -5.32712E-002	 -1.39717E-002	  1.47813E-003	 -2.02739E-002	  2.81060E-002	 -5.19100E-003
  1.40000E-003	  4.23733E-003	  2.11813E-002	  2.23080E-002	  3.01023E-002	 -5.62085E-002	 -5.27503E-003	  1.81200E-002	  1.40475E-002
  1.50000E-003	  1.94936E-002	  5.78494E-002	 -6.86289E-003	  2.08775E-002	  2.70116E-002	 -5.27503E-003	  4.50267E-003	 -1.23495E-002
  1.60000E-003	  1.61479E-002	  1.89208E-002	 -2.11169E-002	 -2.67840E-002	 -2.77750E-003	  1.69232E-002	  2.23306E-003	 -9.44142E-003
  1.80000E-003	  1.29308E-003	  7.36788E-003	 -2.22212E-003	 -1.39718E-002	 -3.16208E-002	  9.12383E-003	 -9.11468E-003	  2.59037E-002
  2.00000E-003	 -9.81455E-003	  1.28932E-002	 -2.22212E-003	  6.52777E-003	 -9.39728E-003	  1.66233E-002	  6.09130E-003	 -1.19022E-002
  2.20000E-003	 -2.70782E-002	  2.84646E-002	  2.62858E-002	  1.47276E-002	  2.37016E-002	  2.02230E-002	  1.40347E-002	 -5.07920E-003
  2.40000E-003	 -1.18220E-002	 -8.70580E-003	  1.40208E-002	  2.54898E-002	 -2.68924E-002	 -1.63742E-002	 -5.02949E-003	  1.96745E-003
  2.60000E-003	 -1.63721E-002	  9.12594E-003	 -2.37688E-002	 -1.03844E-002	  4.31512E-003	 -5.57506E-003	 -4.89165E-004	 -4.58759E-005
  2.80000E-003	  7.44912E-003	  7.11673E-003	  2.08722E-003	  8.06523E-003	  1.85004E-002	  3.46219E-002	 -1.81917E-002	  1.06919E-002
  3.00000E-003	 -7.13801E-003	  3.60061E-003	  1.20319E-002	 -6.28445E-003	 -4.66886E-003	  3.42427E-003	  9.72382E-003	  2.37785E-002
  3.20000E-003	 -7.80725E-003	  1.64105E-002	  1.21975E-002	  2.42085E-002	  2.34651E-002	  1.92569E-003	 -7.29793E-003	  1.15866E-002
  3.60000E-003	  4.30408E-003	  1.26433E-002	 -6.03433E-003	  2.94024E-003	 -7.26960E-003	  1.24249E-002	  7.56764E-003	  1.03003E-002
  4.00000E-003	  3.70186E-003	 -1.88763E-002	 -1.26641E-002	 -3.31902E-002	 -2.54118E-003	  5.52542E-003	 -3.75794E-004	  9.34956E-003
  4.40000E-003	  2.16285E-003	 -1.30998E-002	  1.00428E-002	 -1.03845E-002	  1.37718E-002	 -1.39731E-002	 -1.24044E-002	 -7.31634E-003
  4.80000E-003	 -3.92627E-003	  9.25271E-003	  1.33577E-002	 -1.98655E-002	 -4.19613E-003	  4.02553E-003	  7.34068E-003	 -8.37893E-003
  5.20000E-003	  9.85790E-003	 -7.93349E-004	 -8.96271E-004	 -1.65343E-002	 -2.30476E-003	  1.17574E-003	 -8.29704E-004	  8.84623E-003
  5.60000E-003	  3.43421E-003	 -1.41044E-002	  1.46836E-002	 -2.69713E-003	  3.36933E-003	 -1.08234E-002	 -7.97879E-003	  5.69202E-004
  6.00000E-003	  4.57174E-003	  5.86217E-003	 -7.30527E-004	 -7.05329E-003	 -2.14548E-002	  2.22567E-003	  4.16331E-003	  7.83956E-003
  6.40000E-003	  3.53436E-003	  6.61671E-003	 -3.71413E-003	  9.60238E-003	 -2.11004E-002	 -3.39772E-003	 -3.43990E-003	 -1.13675E-003
  7.20000E-003	  6.91444E-003	 -2.25884E-004	  6.06475E-003	  1.84428E-002	  4.07838E-003	 -4.74347E-004	 -1.26316E-002	 -1.30085E-004
  8.00000E-003	 -8.40875E-003	  6.86917E-003	  6.47911E-003	 -4.61918E-003	  1.59597E-003	  7.25564E-004	  1.60985E-003	 -1.13675E-003
  8.80000E-003	  4.53901E-003	 -1.67001E-003	 -3.46551E-003	 -1.14097E-002	 -1.93273E-002	  1.37746E-002	 -6.22010E-003	  6.24546E-003
  9.60000E-003	  1.92939E-003	 -1.64389E-004	 -5.04008E-003	 -1.00003E-002	  4.07838E-003	  1.60994E-002	  5.29787E-003	 -1.86379E-003
  1.04000E-002	  2.69889E-003	  1.21695E-003	  3.46594E-004	  1.45991E-002	 -1.58992E-002	  7.85003E-003	  3.14180E-003	  9.46120E-003
  1.12000E-002	  3.53531E-003	  1.28327E-002	 -4.12849E-003	  2.81190E-003	  1.10528E-002	  6.50013E-003	  9.78024E-003	 -5.19137E-003
  1.20000E-002	  2.29741E-003	 -4.93628E-003	  3.57860E-003	 -7.18162E-003	  1.77442E-004	  4.62527E-003	  7.11351E-003	 -1.86011E-004
  1.28000E-002	 -3.29371E-004	 -1.35989E-002	  7.84607E-003	 -1.24991E-002	 -1.13467E-002	  2.86390E-003	 -1.39773E-003	  2.10825E-003
  1.44000E-002	 -7.14123E-004	  4.98640E-003	 -1.64276E-003	 -2.88996E-003	  2.89763E-003	  9.91338E-003	  6.44864E-004	  2.40186E-003
  1.60000E-002	 -5.64899E-003	  7.40374E-003	  4.69694E-003	  1.20913E-004	 -2.71737E-003	 -9.09773E-003	  2.29029E-003	  2.19214E-003
  1.76000E-002	  3.03303E-003	  5.91229E-004	  9.83499E-003	  6.27077E-003	 -9.98731E-003	  5.63869E-003	  1.63779E-003	  7.24086E-004
  1.92000E-002	 -2.32005E-003	  7.87595E-003	 -2.30573E-003	  6.07859E-003	  1.71553E-003	  8.33849E-003	 -3.60014E-005	 -1.96036E-003
  2.08000E-002	 -4.12671E-003	  6.86706E-004	 -4.99907E-003	  1.55596E-002	  1.23545E-002	  9.87445E-003	  2.19323E-004	  3.08696E-003
  2.24000E-002	 -2.73826E-003	  9.06762E-003	  2.58371E-003	 -9.87261E-003	  1.22954E-002	  7.13716E-003	 -2.64598E-003	 -5.06284E-004
  2.40000E-002	 -3.35721E-003	 -4.58879E-003	  1.09952E-002	  4.86143E-003	  6.56216E-003	 -3.43705E-003	  1.24062E-003	  3.80001E-003
  2.56000E-002	  4.98775E-004	 -6.45373E-003	  1.09751E-002	 -4.68451E-003	  1.20609E-004	 -8.04921E-005	 -4.48962E-003	 -1.70782E-003
  2.88000E-002	 -1.91848E-003	 -2.96898E-003	  1.38270E-003	 -7.82350E-003	 -5.96724E-003	 -3.96145E-003	 -3.24137E-003	  2.80820E-003
  3.20000E-002	 -3.69168E-003	  1.64596E-003	  4.42824E-003	  4.41215E-003	 -5.31324E-004	 -3.58507E-003	  5.04250E-003	 -1.81268E-003
  3.52000E-002	  6.66058E-004	  2.63327E-004	 -4.62551E-003	 -1.41740E-003	 -6.17587E-003	  1.83328E-003	  2.90623E-004	 -8.96893E-004
  3.84000E-002	  3.37605E-003	  1.80164E-003	 -1.50431E-004	 -2.00245E-004	 -8.09679E-003	 -8.17849E-003	  1.25518E-003	  5.64173E-004
  4.16000E-002	  2.02942E-003	  1.21738E-005	  7.74669E-005	 -5.45325E-003	 -5.93945E-003	 -2.47816E-004	 -1.73779E-003	 -2.42787E-003
  4.48000E-002	 -2.79095E-004	  7.81329E-004	  1.52773E-003	 -5.18702E-004	 -4.40271E-003	  7.40163E-003	 -5.68113E-003	 -2.45583E-003
  4.80000E-002	 -5.80205E-004	  2.46335E-004	  4.38681E-003	  4.79837E-003	  4.96546E-003	  1.34440E-003	  2.06371E-003	 -1.49024E-003
  5.12000E-002	 -8.24879E-004	  1.53567E-003	  6.18019E-003	 -8.06836E-004	  6.91600E-003	 -5.14806E-003	  1.02189E-003	  6.19216E-004
  5.76000E-002	  4.42366E-003	 -4.08388E-003	  4.53460E-003	 -7.91762E-003	  2.24669E-003	 -5.17136E-004	 -2.58225E-003	 -2.06873E-003
  6.40000E-002	 -1.23472E-003	 -7.49546E-004	  1.76874E-003	 -6.07204E-006	 -3.42564E-003	 -4.94182E-003	  1.71694E-003	 -1.98703E-004
  7.04000E-002	 -5.38337E-003	  1.78553E-003	  7.08142E-003	 -1.06308E-003	 -2.92325E-003	 -1.61393E-003	 -1.71576E-003	 -1.85202E-003
  7.68000E-002	 -2.01354E-003	  2.36762E-003	  9.94514E-005	  4.25399E-003	  4.06596E-003	 -1.56706E-003	 -9.85247E-004	 -1.30411E-003
  8.32000E-002	 -1.66224E-003	 -3.26763E-003	 -3.69194E-003	 -1.03105E-003	 -4.69817E-003	  2.89057E-004	  1.28431E-003	  3.63189E-004
  8.96000E-002	  2.05564E-003	  6.16097E-004	  1.36325E-003	  1.21109E-003	 -5.86373E-003	  3.19510E-003	 -1.19679E-003	 -2.98624E-003
  9.60000E-002	  1.49551E-004	  4.13224E-003	  4.72375E-004	 -4.73058E-003	 -6.32915E-004	  4.59210E-004	  3.32228E-003	  3.18659E-003
  1.02400E-001	 -1.52793E-003	  6.61027E-004	  1.13051E-003	 -2.60458E-003	  1.04256E-003	 -1.88400E-003	 -2.08278E-003	 -1.01660E-003
  1.15200E-001	 -4.09756E-005	  9.91961E-004	 -4.72236E-003	 -2.74352E-004	 -2.90272E-003	 -4.91904E-004	  1.94571E-003	 -6.18993E-004
  1.28000E-001	  1.44184E-004	  1.86707E-003	 -2.19993E-003	  2.84864E-003	  3.38460E-003	  2.94131E-004	  5.88742E-004	 -9.70279E-004
  1.40800E-001	 -4.74770E-004	 -3.09799E-005	  3.65422E-004	  8.30706E-004	  3.59147E-003	  2.78019E-003	 -9.79914E-004	  5.80788E-004
  1.53600E-001	 -1.83093E-003	 -2.13439E-003	 -4.56698E-003	  3.01680E-003	 -4.12909E-004	  4.33332E-004	 -1.09339E-003	  3.66022E-003
  1.66400E-001	 -2.40084E-003	  2.58259E-003	 -1.54018E-004	 -2.53252E-003	  8.06136E-004	  1.80199E-003	  4.12515E-004	 -1.22458E-003
  1.79200E-001	  1.21974E-003	 -3.20083E-004	  3.93525E-004	 -2.43642E-003	 -1.39485E-005	 -2.35555E-003	  2.30574E-004	 -2.11066E-003
  1.92000E-001	  1.50278E-003	 -1.49866E-003	 -2.08370E-005	 -4.58529E-004	 -9.90958E-004	 -8.65019E-004	 -7.62366E-004	 -1.89306E-003
  2.04800E-001	 -6.04771E-004	 -4.89228E-004	  2.23921E-003	  2.53661E-003	  2.27118E-003	 -1.26877E-003	  4.75559E-005	 -8.53169E-004
  2.30400E-001	  1.10983E-003	 -4.38881E-004	 -1.22185E-003	  9.43077E-004	  5.09107E-004	  3.58109E-003	  1.46428E-003	  8.57831E-004
  2.56000E-001	 -1.39197E-004	 -1.04126E-003	 -2.26923E-003	 -9.78772E-004	  8.39657E-004	  4.86107E-004	  9.24560E-004	  5.72091E-004
  2.81600E-001	  2.16405E-003	  1.20085E-003	  4.77442E-004	  4.26885E-004	  2.45575E-003	 -9.13027E-004	 -1.25405E-003	  9.75907E-005
  3.07200E-001	 -2.13650E-003	 -3.79348E-004	  1.49633E-003	 -1.41488E-003	 -1.86456E-003	 -6.95071E-004	  1.14497E-003	  1.20563E-003
  3.32800E-001	 -7.63593E-004	 -1.55271E-003	 -9.70255E-004	  7.25019E-004	  1.08880E-003	  2.62440E-003	 -8.30279E-004	 -1.49455E-003
  3.58400E-001	  3.09248E-005	  2.62274E-003	  2.45463E-004	  1.82207E-003	  2.75853E-003	  8.59181E-004	 -4.08279E-004	 -1.79252E-003
  3.84000E-001	 -2.69702E-003	  6.12204E-004	 -1.44493E-004	 -8.38637E-004	  2.07512E-003	  1.58711E-003	 -3.63951E-004	  7.11926E-004
  4.09600E-001	 -1.56958E-003	 -1.16903E-003	  1.55128E-003	  2.32791E-003	  1.45435E-004	  1.03295E-003	 -8.79242E-005	  1.02479E-003
  4.60800E-001	 -9.22470E-004	  6.40410E-004	  3.34482E-005	 -1.45412E-003	 -2.57223E-004	  9.29827E-004	  8.44134E-005	 -1.26962E-004
  5.12000E-001	  1.08363E-004	 -1.88299E-004	 -2.81025E-004	  1.15630E-003	  6.60827E-005	  1.31277E-003	  4.66868E-004	  3.44923E-004
  5.63200E-001	 -1.31571E-003	 -3.07992E-004	  1.57589E-003	 -4.28847E-005	  1.26844E-003	  1.71753E-003	 -1.64459E-003	  1.79316E-004
  6.14400E-001	 -3.82753E-004	 -1.33452E-003	  6.27814E-004	 -3.53346E-004	 -1.20498E-003	 -3.15569E-004	 -1.81427E-003	 -1.11662E-003
  6.65600E-001	  1.29379E-003	  1.05113E-003	  1.56553E-003	 -3.10261E-005	 -1.89401E-003	  1.09557E-004	 -1.45551E-004	  9.84842E-005
  7.16800E-001	 -1.33277E-003	 -6.47449E-004	 -2.63087E-004	  2.28156E-003	  8.19330E-004	  8.77339E-004	 -2.16815E-003	 -1.07817E-003
  7.68000E-001	  1.18359E-003	 -5.09115E-004	  1.45914E-004	 -1.01754E-003	 -1.44838E-004	  1.65098E-003	  4.95436E-004	 -8.30462E-004
  8.19200E-001	  2.81586E-004	 -1.24564E-004	  5.81718E-004	 -8.37885E-004	 -9.11150E-004	 -1.46640E-003	  2.64269E-004	  6.62177E-004
  9.21600E-001	 -6.25762E-005	 -2.49655E-004	  4.11239E-004	  1.27688E-003	  1.71913E-003	  8.00771E-004	 -5.57156E-004	  4.59024E-005
  1.02400E+000	 -7.75107E-004	 -1.35113E-003	 -1.89339E-003	  1.17878E-003	  3.82748E-004	 -5.37233E-004	  4.51584E-004	 -6.03247E-004
  1.12640E+000	  3.00567E-004	  3.74155E-004	 -3.07002E-004	  8.98948E-004	  8.62857E-004	 -2.55607E-004	  2.39788E-004	  9.43093E-004
  1.22880E+000	  5.67034E-004	 -2.52939E-005	  1.35176E-003	  2.89791E-004	 -8.40327E-004	  4.68734E-005	  1.00024E-003	  7.28345E-004
  1.33120E+000	 -1.22698E-004	 -3.44510E-004	  6.16682E-004	  4.24774E-004	 -4.04551E-004	 -2.05803E-004	 -2.49504E-006	  2.25663E-004
  1.43360E+000	 -5.56790E-005	 -5.04254E-004	  9.28378E-004	 -2.25676E-003	  3.30757E-005	 -6.94121E-004	  6.56043E-004	  2.77187E-005
  1.53600E+000	  2.34293E-004	 -5.96166E-004	 -8.62130E-005	  9.35741E-004	 -2.99992E-003	 -9.92253E-004	 -9.93771E-005	 -5.89680E-004
  1.63840E+000	  2.47690E-004	 -3.50977E-004	  6.84314E-004	  8.08240E-004	 -2.62704E-004	  6.07121E-004	 -8.19176E-005	 -2.36032E-004
  1.84320E+000	  6.47959E-004	  1.41944E-004	  2.87542E-005	  5.44254E-004	 -9.71203E-005	  5.17224E-004	  4.83321E-006	  6.64130E-004
  2.04800E+000	  2.75572E-004	  6.97840E-005	  6.85161E-004	 -5.89140E-004	  3.92104E-004	 -3.04048E-005	 -9.95740E-005	  2.03883E-004
  2.25280E+000	  6.21415E-004	 -5.30448E-005	 -4.42445E-004	 -1.30177E-004	  4.72570E-005	  6.52975E-004	 -1.50170E-004	 -1.41256E-004
  2.45760E+000	  2.21235E-004	  9.12889E-004	 -3.32497E-004	 -1.64583E-003	 -2.45329E-004	 -5.45532E-004	 -1.17321E-003	  5.69427E-005
  2.66240E+000	 -1.99186E-004	 -5.25031E-004	  7.51133E-005	 -6.63759E-004	 -5.33901E-004	 -5.56806E-004	  5.42533E-004	  3.99696E-004
  2.86720E+000	  2.00250E-004	  2.12836E-004	  4.07877E-004	 -5.93344E-005	 -4.76634E-004	  9.87422E-005	 -7.06448E-004	  5.54314E-005
  3.07200E+000	 -2.98227E-004	 -5.30289E-005	 -4.34574E-005	 -1.84927E-003	 -1.10757E-003	 -7.41848E-004	 -3.01773E-004	 -1.79497E-004
  3.27680E+000	  1.34390E-004	 -2.19838E-004	 -1.29272E-004	 -6.26763E-004	 -4.91388E-004	  1.27204E-004	 -7.24094E-004	 -1.75404E-004
  3.68640E+000	  2.29372E-005	  3.82435E-004	  5.70825E-004	 -6.82081E-004	  3.03911E-004	  2.65802E-004	  1.69216E-004	 -4.90562E-005
  4.09600E+000	  6.31388E-005	 -4.03491E-005	 -1.37475E-004	 -2.47236E-004	  8.83187E-004	  2.78939E-004	 -9.52496E-006	  6.08429E-005
  4.50560E+000	  2.11555E-004	 -1.62743E-004	 -2.83618E-004	 -5.58622E-005	 -3.40883E-004	 -2.48618E-004	 -1.59753E-004	 -8.27449E-005
  4.91520E+000	 -3.96087E-004	  1.73053E-004	 -5.19693E-005	 -3.60626E-004	 -2.76822E-004	  1.39504E-004	 -3.43114E-004	 -2.79645E-004
  5.32480E+000	  2.13983E-004	 -8.06817E-004	 -1.67512E-004	  3.00440E-004	 -2.08764E-004	  2.44118E-004	  2.11645E-004	 -3.33318E-005
  5.73440E+000	  3.26771E-005	 -1.48259E-004	  8.65981E-004	 -3.30049E-004	 -1.53831E-004	 -4.76112E-004	 -1.35269E-005	 -2.55156E-004
  6.14400E+000	 -1.93813E-004	 -4.35188E-004	  3.64058E-004	  2.11037E-004	  1.84190E-005	  9.28092E-004	 -7.03178E-006	 -2.03438E-004
  6.55360E+000	 -4.67513E-006	  9.47917E-006	  6.12946E-004	  1.96118E-004	  1.74821E-004	  8.78369E-004	 -3.20895E-004	  7.92964E-005
  7.37280E+000	 -7.43304E-005	  1.35362E-004	 -2.03276E-004	 -4.03272E-005	  2.32090E-004	  5.06191E-004	  2.42551E-004	  4.89849E-005
  8.19200E+000	  5.69310E-005	 -2.63383E-004	  1.69461E-004	 -1.37866E-005	  1.98680E-004	  2.66677E-004	 -1.65210E-004	 -2.24891E-005
  9.01120E+000	  2.33321E-004	 -1.06096E-005	 -8.48717E-006	 -3.99954E-004	  1.67037E-004	  2.41408E-004	  4.46590E-004	 -1.87261E-004
  9.83040E+000	  1.82023E-004	 -3.24995E-005	 -1.44060E-004	  2.93937E-004	 -1.46382E-004	 -9.09110E-006	 -2.31842E-004	  5.74304E-005
  1.06496E+001	 -6.22825E-005	  6.17040E-005	  1.07490E-005	  1.38196E-004	  2.19223E-004	 -1.72160E-004	 -3.53255E-004	  2.80785E-004
  1.14688E+001	  5.61222E-005	  4.83024E-005	 -2.07627E-004	 -2.14753E-004	 -7.85195E-004	 -4.44356E-005	  1.39618E-004	 -6.75190E-005
  1.22880E+001	 -3.42872E-005	  1.42056E-004	 -5.06764E-005	  6.65299E-005	 -3.28912E-004	 -6.73328E-004	 -1.08136E-004	 -1.09226E-004
  1.31072E+001	 -1.24297E-004	 -2.13668E-005	 -2.92910E-004	  1.63948E-004	 -7.20882E-006	 -1.52779E-004	  5.51118E-005	 -8.60821E-006
  1.47456E+001	 -1.47109E-005	  6.81483E-005	 -2.86265E-004	  2.37568E-004	 -1.83455E-004	  1.21033E-004	  1.64705E-004	 -6.73547E-005
  1.63840E+001	  2.42142E-004	  3.20349E-006	 -1.63606E-006	 -2.61828E-004	 -2.09781E-004	  4.55595E-005	  1.60243E-004	 -5.82144E-005
  1.80224E+001	  2.89380E-005	  2.62951E-004	  2.07000E-004	 -6.12002E-005	 -3.83684E-005	 -1.78597E-004	 -1.09303E-004	  4.91414E-005
  1.96608E+001	  1.51501E-005	  4.25470E-004	  2.48031E-004	 -3.32591E-004	  1.93690E-004	 -1.27201E-004	 -4.07619E-004	  5.15274E-005
  2.12992E+001	 -1.43862E-004	 -1.02306E-004	  9.54831E-006	  2.61959E-005	 -3.42530E-004	 -2.84198E-005	 -1.76969E-005	 -9.67570E-005
  2.29376E+001	 -7.16398E-005	 -5.65209E-005	  1.92809E-004	  3.39080E-004	 -2.14361E-004	 -2.82906E-004	 -4.74394E-005	  2.53000E-004
  2.45760E+001	 -2.88551E-005	 -3.42304E-004	  2.02830E-005	 -6.00425E-005	  3.85919E-004	  2.52592E-004	  1.19517E-004	  1.92994E-004
  2.62144E+001	 -1.08981E-004	  8.31237E-006	  9.14337E-005	 -1.13853E-004	  2.00900E-004	 -7.27716E-005	 -9.04230E-005	  1.08088E-004
  2.94912E+001	 -1.45698E-004	 -9.16542E-005	  7.31025E-006	  1.79555E-004	 -2.20607E-004	 -4.52682E-005	  9.85168E-005	 -1.96949E-006
  3.27680E+001	 -2.91770E-006	  6.67185E-005	 -6.22781E-005	  2.50960E-004	  9.82497E-005	 -4.12691E-005	 -1.08816E-005	  5.29037E-006
  3.60448E+001	 -7.54244E-005	  3.66523E-005	 -1.67260E-004	  1.40590E-004	 -1.42567E-005	  3.29205E-004	  3.81269E-005	  1.94900E-005
  3.93216E+001	 -8.02482E-005	  1.74557E-004	  2.50592E-004	 -6.77531E-005	  2.15793E-005	 -9.74525E-005	 -4.85993E-005	 -7.63975E-005
  4.25984E+001	 -1.12497E-004	  3.39990E-005	 -2.62364E-004	  2.26489E-004	  2.51215E-004	  4.53803E-005	  2.32345E-004	 -1.05243E-004
  4.58752E+001	  9.68779E-005	 -4.22128E-005	  1.10785E-005	  3.16789E-005	  1.43342E-004	 -2.39535E-004	 -2.27140E-005	 -3.79233E-006
  4.91520E+001	  9.64623E-005	  4.66978E-005	  1.86347E-004	 -2.07404E-004	 -1.41181E-004	 -6.24954E-005	  1.23102E-004	  2.09539E-005
  5.24288E+001	  4.30397E-005	 -5.75816E-005	  1.05771E-004	 -5.09329E-005	  1.53091E-004	  4.07276E-006	  1.41316E-004	  6.04591E-005
  5.89824E+001	  6.00558E-005	 -1.13321E-005	 -5.20532E-005	  2.13006E-006	  1.23933E-004	 -7.84103E-005	 -3.97833E-005	 -9.80125E-006
  6.55360E+001	  1.15594E-004	 -3.49440E-005	 -2.71922E-004	  7.59960E-005	 -2.22717E-004	  2.78819E-005	  1.57443E-005	  6.62712E-006
  7.20896E+001	  2.16550E-006	 -1.32754E-004	 -3.43734E-005	 -8.83902E-005	 -7.78159E-005	 -7.21977E-005	  7.09789E-006	  2.74763E-005
  7.86432E+001	  1.52058E-004	  3.83555E-005	 -4.07929E-005	  1.16163E-005	  1.55317E-004	 -5.64386E-005	 -8.34745E-005	  1.35696E-005
  8.51968E+001	  3.31433E-005	  3.82317E-005	  1.15868E-004	  1.01250E-004	 -7.13579E-005	 -1.03484E-004	  8.92880E-005	  6.48818E-007
  9.17504E+001	 -5.09332E-005	 -3.22861E-005	  5.49414E-005	  1.59068E-004	 -1.70550E-004	  3.23404E-005	 -1.28876E-004	 -2.99012E-005
  9.83040E+001	 -1.87815E-005	 -4.21606E-005	  1.03280E-004	  3.49125E-005	  2.48663E-004	  4.11649E-005	  1.37870E-004	  3.50835E-005
  1.04858E+002	  2.44760E-005	  8.45867E-005	  1.42497E-004	  2.64364E-005	 -1.31434E-005	 -1.92819E-005	  1.12654E-004	 -4.67122E-005
  1.17965E+002	  1.77179E-005	 -2.44595E-005	 -9.04696E-005	 -8.28330E-006	 -1.02469E-004	  2.10904E-005	  5.41285E-005	 -2.20468E-005
  1.31072E+002	  8.15070E-006	 -3.26078E-005	 -1.61257E-004	  1.00439E-004	  3.52438E-005	  5.59084E-005	 -4.48468E-006	  2.88198E-005
  1.44179E+002	  5.40062E-005	  5.14376E-005	  2.20742E-005	 -9.56610E-005	  3.00875E-005	  6.28691E-005	  6.38119E-005	  1.82520E-005
  1.57286E+002	 -1.23844E-005	  5.94706E-005	 -2.30503E-005	  1.72416E-005	  1.34398E-004	  1.00618E-005	 -7.56523E-006	  1.70155E-005
  1.70394E+002	  5.39346E-005	 -6.40794E-005	 -7.64943E-005	  8.05652E-005	  2.68655E-005	  8.45075E-005	 -4.77156E-005	  4.05411E-005
  1.83501E+002	 -6.09759E-005	 -4.27731E-005	 -9.73758E-005	 -4.02543E-005	  1.04252E-004	  5.13271E-005	  8.00497E-006	 -3.61199E-005
  1.96608E+002	 -2.20965E-005	  9.48362E-005	  9.74429E-005	  5.19432E-005	 -9.23070E-005	  4.87918E-005	 -3.38727E-006	  5.60293E-005
  2.09715E+002	 -1.80699E-005	  2.38957E-005	 -3.27429E-005	  8.46137E-005	 -6.56515E-006	  4.27256E-005	  2.67377E-005	  3.49879E-005
  2.35930E+002	 -4.69218E-005	 -3.88167E-005	  1.21370E-005	  1.66935E-004	 -7.77032E-006	 -2.49085E-005	 -5.39848E-005	  1.13414E-005
  2.62144E+002	  4.12512E-005	  8.48375E-005	 -4.65864E-005	 -3.24568E-005	 -1.22580E-005	 -3.67692E-005	 -3.25789E-007	  1.10299E-005
  2.88358E+002	  1.36347E-005	 -5.47192E-006	 -5.64135E-005	  8.23845E-005	  1.65789E-005	  5.78455E-006	 -8.97592E-006	 -3.92516E-005
  3.14573E+002	 -4.03587E-005	  1.11285E-005	 -3.34878E-005	  3.67120E-005	  8.94106E-005	 -8.06269E-005	  4.33373E-005	 -3.48355E-005
  3.40787E+002	 -8.33236E-006	 -2.40678E-005	  3.17898E-005	 -8.63102E-005	  5.88131E-005	 -3.28878E-005	  6.85365E-005	 -2.37019E-005
  3.67002E+002	 -1.64183E-005	  1.04550E-005	 -3.65985E-005	  2.41739E-005	  1.08584E-004	 -1.03416E-005	 -2.28655E-005	 -2.00962E-005
  3.93216E+002	 -6.66271E-005	  2.60331E-005	 -3.11225E-005	  5.48654E-005	 -3.09952E-005	 -1.79071E-005	  3.93869E-005	 -2.94878E-005
  4.19430E+002	 -1.86291E-005	 -1.00521E-005	 -2.37944E-005	  5.35850E-005	 -1.24387E-004	 -2.34096E-005	  2.69999E-006	  2.46525E-005
  4.71859E+002	 -3.43378E-005	  3.65868E-006	 -8.26063E-005	 -2.31069E-005	  5.67457E-008	  5.91804E-005	 -4.63756E-005	 -8.94888E-006
  5.24288E+002	  5.36960E-006	 -4.13800E-005	  4.84400E-005	  5.09244E-005	  6.73007E-005	 -6.96555E-005	 -8.77715E-006	 -2.42216E-005
  5.76717E+002	  1.74638E-005	 -2.50941E-005	  5.41600E-005	  5.02415E-005	  2.62672E-005	  3.42657E-006	  5.71459E-006	  2.64464E-005
  6.29146E+002	  1.98283E-006	 -2.40161E-005	  3.27540E-005	 -7.72187E-006	 -1.52166E-005	  1.59264E-005	 -1.81850E-005	  2.01184E-005
  6.81574E+002	  2.45779E-006	  2.35933E-005	  2.94906E-005	  1.02943E-004	  3.43055E-005	  1.96475E-007	  6.51778E-006	 -1.19212E-005
  7.34003E+002	  2.77647E-006	 -5.87605E-005	  3.53926E-006	  6.45024E-005	  5.16416E-006	 -1.27438E-005	 -2.32034E-005	  3.36575E-006
  7.86432E+002	 -4.23839E-005	 -7.79420E-006	 -1.87133E-005	 -1.01992E-005	  1.17998E-005	  4.42796E-005	  3.48632E-005	  1.85857E-005
  8.38861E+002	 -1.83263E-005	  7.07063E-006	 -5.58395E-005	 -2.59952E-005	 -6.91496E-006	  2.59784E-005	 -8.77837E-006	  1.04501E-005
  9.43718E+002	  1.33358E-005	  1.40257E-005	  1.33036E-005	 -4.49938E-005	 -1.64550E-005	  3.86019E-005	 -2.00094E-005	  4.91842E-007
  1.04858E+003	 -2.13458E-005	  2.66069E-005	  1.58012E-005	 -5.05894E-005	 -6.23198E-006	  2.83328E-005	 -3.69740E-006	  2.96077E-005
  1.15343E+003	  1.36061E-005	  2.91902E-005	  8.14321E-006	 -2.75715E-005	  9.99728E-006	 -2.74150E-005	  6.53801E-006	  1.27669E-005
  1.25829E+003	  8.47623E-006	  1.83223E-005	  3.93729E-007	  7.00769E-006	 -1.75742E-005	  1.63463E-005	  5.79431E-006	 -8.11236E-006
  1.36315E+003	  1.93310E-005	  1.98981E-005	 -3.08451E-005	  2.96307E-006	 -2.45990E-005	 -1.50804E-005	  1.74741E-005	  3.42636E-006
  1.46801E+003	  3.83651E-005	 -8.93083E-006	  3.94407E-005	 -4.28495E-006	  2.29909E-006	 -2.48918E-005	 -4.02380E-005	 -1.60790E-005
  1.57286E+003	 -4.36159E-006	  8.16433E-006	 -6.33858E-006	 -1.62714E-005	 -1.57340E-005	  6.63763E-007	 -1.46979E-005	 -1.11468E-006
  1.67772E+003	 -1.67395E-005	  1.56507E-005	 -3.78183E-005	 -2.46929E-005	  6.51741E-006	 -1.20193E-005	 -1.57685E-005	  9.80590E-006
  1.88744E+003	 -1.67562E-005	 -5.61093E-006	 -1.52335E-005	 -6.94017E-006	  8.03494E-006	 -7.34441E-006	  2.25237E-005	  2.80917E-005
  2.09715E+003	  1.02486E-006	 -1.48869E-006	  1.22586E-005	  2.25092E-005	  5.56337E-006	  1.18257E-007	  8.24026E-006	  3.91686E-006
  2.30687E+003	 -1.55028E-006	 -7.65187E-006	 -8.70218E-006	  2.84119E-005	  5.02061E-007	 -2.68332E-005	  1.26898E-005	 -1.72425E-005
  2.51658E+003	 -2.89364E-006	  1.39590E-005	 -1.72127E-005	  6.41004E-006	 -7.71856E-007	  6.79986E-006	 -6.22167E-006	  3.83477E-006
  2.72630E+003	 -1.52257E-005	  1.26607E-005	  3.32500E-007	  2.78697E-005	 -1.69853E-005	 -1.97449E-005	 -2.30788E-005	  6.39850E-006
  2.93601E+003	  2.15743E-005	 -8.38335E-006	  1.81244E-005	 -1.03246E-006	 -1.56247E-005	 -4.82984E-006	 -1.98554E-005	 -1.55988E-006
"Count Rate"
       0.11679	      35.07949	      24.92153	      22.33727	      18.36279	      18.47366	      23.56543	      26.16676	      39.19043
       0.23357	      35.42918	      26.26910	      22.73813	      18.02163	      18.50778	      23.07928	      27.62520	      39.48042
       0.35036	      35.18184	      25.96206	      22.86606	      19.19009	      18.65277	      23.55691	      27.04524	      39.40366
       0.46714	      34.90891	      25.87677	      22.14963	      17.56107	      18.03016	      23.47161	      27.01965	      39.20749
       0.58393	      34.67863	      25.93648	      23.07928	      18.56748	      18.85746	      23.13899	      26.34587	      38.67017
       0.70072	      33.62957	      25.36504	      21.45026	      17.95340	      19.39479	      24.09423	      27.03671	      37.08379
       0.81750	      35.98355	      25.38210	      21.62937	      18.22632	      19.30950	      23.28398	      26.61879	      38.32048
       0.93429	      35.54858	      26.31175	      21.93641	      18.48219	      18.91717	      23.13046	      27.07935	      37.86845
       1.05107	      35.30977	      25.08358	      21.85112	      18.54189	      19.33508	      23.50573	      27.04524	      38.24372
       1.16786	      35.95797	      25.22005	      22.95988	      18.43955	      18.78070	      23.06223	      28.12841	      37.93668
       1.28465	      35.47182	      25.68914	      22.20933	      17.76576	      18.63571	      23.93218	      28.34163	      39.65100
       1.40143	      36.27354	      25.27122	      22.08140	      18.08986	      19.30097	      24.11129	      27.59962	      38.67017
       1.51822	      35.59975	      25.59532	      22.70401	      16.98963	      18.87452	      23.60808	      27.94077	      39.70217
       1.63500	      35.36094	      25.87677	      22.03876	      17.67194	      18.66983	      22.71254	      27.52286	      38.97721
       1.75179	      35.13919	      25.62091	      22.20081	      17.44166	      18.00457	      23.19016	      26.87466	      37.56141
       1.86858	      35.09655	      25.80001	      22.42256	      18.14956	      18.22632	      23.48014	      27.25846	      38.48253
       1.98536	      36.20531	      25.36504	      23.03664	      17.57813	      18.33720	      23.27545	      27.20729	      37.47612
       2.10215	      35.45476	      26.16676	      22.84900	      17.83399	      18.98540	      23.76160	      26.18382	      39.01133
       2.21894	      35.11361	      25.27122	      22.86606	      17.50136	      18.78070	      22.83195	      27.01965	      38.23520
       2.33572	      34.09866	      26.20940	      21.62084	      17.60371	      18.84041	      23.07928	      27.67638	      39.01133
       2.45251	      34.98567	      25.31386	      22.14963	      18.24338	      18.81482	      23.30957	      26.62732	      38.39724
       2.56929	      34.78098	      25.56973	      22.18375	      19.09628	      19.78712	      24.33304	      26.83201	      38.29490
       2.68608	      34.75539	      25.12623	      22.44814	      18.43955	      18.54189	      23.32662	      26.77231	      38.13285
       2.80287	      35.88121	      26.02177	      21.47585	      18.29456	      19.50566	      23.97482	      27.48021	      38.29490
       2.91965	      35.30977	      26.32881	      22.40550	      17.87664	      18.41396	      23.77013	      26.46527	      37.24584
       3.03644	      35.23301	      25.51856	      22.71254	      17.97046	      19.00246	      23.77866	      26.92583	      38.91751
       3.15322	      35.97503	      25.42474	      22.67842	      18.55895	      18.27750	      23.44603	      27.80431	      38.14991
       3.27001	      34.42276	      25.14329	      22.66990	      18.89158	      18.17515	      23.23281	      27.54844	      38.86633
       3.38680	      36.00061	      25.20299	      22.61019	      18.32867	      19.22421	      24.39274	      26.75525	      38.78957
       3.50358	      36.43559	      25.85972	      21.89376	      18.17515	      18.30308	      23.59955	      27.15611	      38.65311
       3.62037	      35.19889	      26.10706	      22.16669	      18.42249	      18.80629	      24.69125	      26.72967	      38.14138
       3.73715	      33.49311	      26.58467	      22.69548	      17.44166	      18.75512	      23.20722	      26.80643	      37.94521
       3.85394	      34.55070	      25.70620	      22.22639	      18.19221	      18.82335	      24.07717	      27.80431	      38.51665
       3.97073	      35.04538	      25.97912	      22.03876	      18.06427	      18.72100	      23.37780	      27.39492	      38.55077
       4.08751	      35.19036	      25.70620	      22.18375	      18.81482	      18.27750	      23.64219	      27.19876	      38.35460
       4.20430	      34.86627	      26.30322	      22.48226	      17.94487	      18.42249	      23.34368	      26.26058	      37.78316
       4.32108	      35.85562	      24.97271	      21.90229	      18.09839	      19.20715	      23.45456	      27.30964	      38.78957
       4.43787	      34.79803	      25.50150	      22.63578	      17.74870	      18.18368	      23.73601	      26.71261	      37.96227
       4.55466	      36.35030	      25.55268	      22.87459	      17.17727	      18.94275	      23.60808	      27.09641	      37.62964
       4.67144	      33.78309	      25.80854	      22.42256	      18.16662	      18.40543	      24.25628	      26.95142	      39.44630
       4.78823	      35.71063	      25.97912	      22.70401	      18.02163	      18.81482	      22.84900	      26.55056	      38.18402
       4.90501	      35.40359	      25.98765	      22.67842	      17.75723	      18.00457	      23.89806	      26.70408	      38.09873
       5.02180	      35.23301	      25.69767	      21.92788	      18.17515	      19.03657	      23.12193	      27.51433	      38.34607
       5.13859	      34.88332	      26.09000	      22.78077	      17.74018	      18.71247	      23.14752	      27.70197	      38.61900
       5.25537	      35.02832	      25.97912	      21.81700	      18.43955	      18.24338	      23.32662	      27.08788	      39.68511
       5.37216	      34.91744	      25.50150	      21.64643	      17.62930	      18.41396	      23.74454	      26.90025	      38.32901
       5.48894	      34.85774	      25.47591	      22.86606	      18.26044	      18.83188	      23.11340	      27.17317	      38.90898
       5.60573	      36.11149	      25.49297	      22.69548	      17.51842	      18.72100	      23.83836	      27.17317	      37.84286
       5.72252	      35.66798	      25.47591	      22.08993	      18.04722	      18.55042	      23.45456	      26.67849	      38.40577
       5.83930	      35.08802	      25.39063	      22.44814	      17.25403	      18.36279	      23.03664	      28.35869	      38.60194
       5.95609	      34.83215	      26.01324	      22.70401	      18.27750	      18.54189	      24.06864	      26.21793	      39.13926
       6.07287	      34.69569	      25.86824	      22.55902	      17.90222	      18.88305	      23.28398	      26.69555	      38.28637
       6.18966	      35.41212	      25.97059	      22.82342	      18.01310	      18.31161	      23.18163	      26.17529	      38.68723
       6.30645	      35.07096	      26.03882	      22.07287	      17.88517	      19.28391	      23.20722	      26.69555	      38.84075
       6.42323	      34.97714	      25.37357	      22.06434	      18.04722	      19.01098	      22.90871	      27.52286	      38.64458
       6.54002	      35.59122	      26.29469	      22.12404	      17.38196	      18.28603	      23.61661	      26.33734	      38.37166
       6.65680	      34.57628	      25.86824	      22.32874	      17.31373	      18.50778	      24.48656	      27.93225	      38.57635
       6.77359	      34.25218	      25.44180	      22.31168	      18.07280	      18.92570	      24.26481	      26.82348	      39.55718
       6.89038	      34.78098	      25.56120	      22.25198	      18.40543	      18.51631	      23.52279	      26.61879	      38.38871
       7.00716	      35.99208	      25.67208	      22.58461	      18.30308	      18.90864	      23.96629	      27.55697	      38.44842
       7.12395	      35.29271	      25.81707	      22.08993	      17.72312	      18.94275	      23.10487	      26.99406	      40.04333
       7.24074	      35.30124	      25.75737	      21.97905	      18.10692	      18.93423	      24.01747	      26.79790	      38.10726
       7.35752	      35.38653	      25.94501	      22.45667	      18.00457	      18.81482	      23.58249	      26.74673	      38.78957
       7.47431	      34.92597	      25.85972	      22.55902	      17.82546	      19.18156	      23.44603	      27.44610	      38.38871
       7.59109	      35.18184	      25.96206	      22.65284	      17.97046	      18.46513	      23.96629	      27.20729	      39.24161
       7.70788	      35.58270	      25.98765	      22.00464	      17.61224	      18.54189	      22.95988	      26.91730	      39.48042
       7.82467	      35.77033	      25.37357	      22.40550	      17.70606	      18.15809	      22.72960	      27.17317	      38.75546
       7.94145	      35.43771	      25.45886	      23.65072	      17.72312	      18.72100	      23.64219	      26.43115	      38.15843
       8.05824	      35.07949	      26.37998	      21.38203	      17.29667	      19.45449	      23.90659	      27.53992	      38.70428
       8.17502	      36.42706	      25.27975	      22.81489	      17.99604	      18.23485	      23.51426	      27.33522	      38.48253
       8.29181	      35.08802	      26.48233	      22.83195	      18.34573	      19.02804	      23.99188	      26.28616	      39.37807
       8.40860	      36.27354	      26.45674	      22.62725	      18.66130	      19.84682	      23.15605	      26.90878	      38.05609
       8.52538	      34.48246	      26.50792	      21.20292	      17.69753	      18.05574	      24.37568	      27.43757	      38.49959
       8.64217	      35.47182	      26.41410	      23.03664	      17.90222	      18.90011	      23.82130	      27.97489	      38.31195
       8.75895	      34.69569	      25.89383	      22.18375	      18.09839	      18.49925	      23.77013	      27.27552	      38.49106
       8.87574	      34.92597	      26.12411	      23.14752	      18.37132	      18.30308	      23.36074	      27.01965	      38.30342
       8.99253	      34.58481	      26.14970	      22.78077	      17.66341	      18.88305	      24.13687	      27.78725	      38.71281
       9.10931	      34.24366	      25.30534	      22.09846	      18.30308	      18.87452	      23.59955	      27.94077	      37.39083
       9.22610	      35.12214	      25.13476	      22.36285	      17.50136	      18.68689	      23.77013	      27.07082	      38.98574
       9.34288	      35.66798	      25.38210	      22.08993	      18.79776	      19.25832	      23.79572	      26.95142	      38.44842
       9.45967	      35.46329	      25.30534	      22.20933	      19.22421	      18.42249	      23.07928	      27.43757	      38.67870
       9.57646	      34.32042	      25.57826	      22.61019	      18.67836	      17.93634	      23.98335	      26.10706	      38.91751
       9.69324	      35.84709	      26.33734	      21.97905	      18.42249	      18.76365	      22.95135	      27.64226	      38.40577
       9.81003	      35.73622	      25.81707	      22.21786	      18.07280	      18.88305	      23.65072	      27.77872	      37.30554
       9.92681	      35.40359	      26.27763	      22.72107	      18.09839	      18.95128	      23.28398	      27.15611	      38.71281
      10.04360	      35.52299	      25.79148	      22.56755	      18.55895	      19.25832	      24.42686	      27.42904	      39.11367
      10.16039	      35.41212	      25.31386	      23.15605	      18.20927	      18.66130	      23.85542	      26.72114	      38.39724
      10.27717	      35.16478	      25.71472	      22.49932	      18.00457	      18.86599	      22.90871	      27.15611	      38.73840
      10.39396	      35.43771	      25.04094	      23.14752	      17.85958	      19.22421	      23.87247	      27.65932	      38.77252
      10.51074	      35.26713	      25.48444	      22.08140	      16.92140	      19.13892	      23.61661	      26.83201	      38.99427
      10.62753	      35.59122	      26.33734	      22.03023	      18.14104	      18.83188	      23.48867	      27.63373	      39.25014
      10.74432	      36.07737	      25.14329	      22.25198	      18.31161	      18.82335	      23.71895	      27.35228	      38.06461
      10.86110	      35.25860	      25.56973	      23.20722	      18.08986	      19.17303	      23.70190	      27.19876	      38.88339
      10.97789	      34.90891	      26.37145	      22.14963	      18.03869	      18.76365	      23.68484	      27.14758	      38.96868
      11.09467	      35.11361	      25.83413	      23.17310	      17.91928	      18.91717	      23.47161	      27.47168	      38.61900
      11.21146	      34.94303	      24.91301	      22.70401	      18.26044	      18.74659	      23.22428	      26.89172	      38.71281
      11.32825	      35.77886	      26.07294	      22.01317	      17.67194	      18.89158	      24.04305	      26.26058	      38.82369
      11.44503	      35.10508	      25.19446	      22.26904	      17.59518	      18.95981	      24.08570	      27.38639	      39.09661
      11.56182	      36.51235	      25.48444	      22.28609	      18.44808	      19.09628	      23.07928	      27.14758	      37.89404
      11.67861	      36.08590	      24.73390	      22.27757	      18.08986	      19.08775	      24.04305	      27.00259	      39.57423
      11.79539	      35.67651	      26.26910	      22.84900	      17.65489	      17.94487	      22.76371	      27.17317	      39.19896
      11.91218	      34.96008	      25.04947	      22.24345	      18.50778	      18.81482	      24.05158	      27.02818	      37.85139
      12.02896	      34.81509	      24.90448	      22.82342	      18.36279	      19.13892	      23.17310	      27.00259	      39.21602
      12.14575	      35.89827	      25.60385	      22.16669	      18.52484	      18.81482	      23.39486	      26.90878	      39.48895
      12.26254	      34.68716	      26.32028	      23.02811	      18.12398	      18.74659	      23.52279	      26.81496	      38.71281
      12.37932	      35.17331	      25.82560	      22.60167	      17.79135	      18.85746	      22.90871	      26.75525	      38.57635
      12.49611	      34.84921	      25.93648	      22.63578	      18.07280	      18.42249	      23.06223	      26.41410	      38.48253
      12.61289	      35.19889	      26.28616	      22.66990	      18.02163	      18.69542	      23.48867	      26.90025	      38.89192
      12.72968	      35.78739	      25.76590	      21.75730	      17.54401	      18.72100	      23.19016	      27.05377	      38.85781
      12.84647	      35.47182	      25.57826	      22.03876	      17.14315	      18.51631	      23.74454	      27.13906	      38.27784
      12.96325	      34.94303	      25.33092	      21.62084	      18.37132	      18.83188	      22.69548	      26.96848	      38.78957
      13.08004	      35.21595	      25.11770	      22.74666	      17.68047	      18.61865	      22.26051	      26.55909	      39.36954
      13.19682	      35.09655	      25.71472	      22.11552	      17.84252	      18.87452	      23.30104	      26.84054	      39.53159
      13.31361	      34.88332	      26.12411	      22.59314	      17.29667	      18.72100	      23.60808	      26.58467	      38.29490
      13.43040	      35.25007	      24.83624	      22.36285	      18.14104	      18.07280	      23.37780	      26.84907	      39.32690
      13.54718	      34.89185	      25.45886	      21.60378	      17.86811	      19.59095	      23.48014	      26.98553	      39.24161
      13.66397	      34.03043	      25.02388	      22.19228	      18.02163	      18.66130	      23.57396	      26.25205	      38.33754
      13.78075	      35.43771	      25.81707	      22.42256	      18.06427	      18.27750	      23.55691	      26.95995	      38.61900
      13.89754	      34.96861	      25.26269	      21.82553	      18.14104	      18.89158	      24.08570	      26.90025	      38.44842
      14.01433	      34.90891	      25.87677	      22.83195	      17.49284	      18.48219	      23.32662	      26.56762	      39.03691
      14.13111	      36.46970	      24.98124	      22.13257	      18.14956	      19.05363	      23.89806	      27.17317	      38.72134
      14.24790	      35.07096	      25.88530	      22.31168	      18.32867	      18.49925	      24.23922	      26.84054	      38.61900
      14.36468	      35.37800	      24.82771	      22.40550	      17.54401	      18.55042	      23.84689	      27.07935	      38.34607
      14.48147	      33.77456	      25.62943	      21.20292	      17.70606	      19.05363	      23.32662	      26.63585	      37.58699
      14.59826	      35.28418	      25.76590	      22.89165	      18.68689	      19.36920	      24.23922	      26.49939	      38.03903
      14.71504	      36.16266	      25.45033	      23.25839	      17.50989	      18.92570	      24.11129	      27.56550	      39.28425
      14.83183	      35.81298	      25.89383	      22.52490	      17.19432	      18.57601	      23.50573	      27.59962	      37.44201
      14.94861	      34.96861	      27.21582	      22.32021	      17.67194	      18.83188	      23.32662	      27.03671	      38.79810
      15.06540	      35.21595	      25.97059	      22.73813	      17.74870	      18.49072	      23.77866	      26.35439	      39.76187
      15.18219	      34.94303	      25.42474	      22.14963	      17.57813	      19.49714	      23.68484	      26.49086	      39.04544
      15.29897	      34.83215	      24.81919	      22.34580	      18.02163	      18.32867	      23.90659	      27.07935	      39.47189
      15.41576	      35.72769	      25.47591	      22.72107	      18.09839	      18.64424	      23.62514	      26.57615	      38.54224
      15.53254	      35.33536	      26.39704	      22.65284	      18.08986	      18.71247	      23.29251	      28.25635	      37.58699
      15.64933	      35.85562	      25.29681	      22.76371	      17.67194	      18.57601	      23.62514	      27.01965	      37.67228
      15.76612	      35.30977	      26.21793	      22.59314	      17.82546	      18.98540	      22.78930	      27.57403	      38.53371
      15.88290	      34.49099	      26.15823	      22.32021	      17.73165	      18.99393	      23.62514	      27.16464	      39.00280
      15.99969	      35.18184	      25.97059	      23.04517	      17.85958	      18.64424	      24.01747	      27.11347	      38.58488
      16.11647	      35.31830	      25.55268	      22.72107	      18.77217	      18.58454	      23.78719	      27.41198	      39.04544
      16.23326	      35.47182	      25.58679	      21.47585	      17.59518	      18.01310	      23.92365	      27.06230	      37.85992
      16.35005	      35.77886	      25.98765	      22.83195	      18.28603	      18.90011	      23.65925	      26.51644	      38.72134
      16.46683	      35.30124	      25.61238	      22.75519	      18.24338	      18.90011	      23.09634	      27.13053	      38.17549
      16.58362	      33.39076	      25.73178	      22.01317	      17.33932	      18.36279	      23.94924	      27.32669	      38.14138
      16.70041	      35.66798	      25.94501	      22.21786	      17.99604	      18.55042	      24.00041	      27.49727	      38.20961
      16.81719	      34.36306	      25.62943	      22.54196	      17.55254	      18.66130	      22.76371	      27.53992	      38.02197
      16.93398	      35.01979	      25.97059	      22.66137	      18.38837	      18.92570	      24.11129	      27.16464	      37.72346
      17.05076	      35.42918	      26.14970	      22.76371	      17.83399	      18.36279	      23.14752	      26.81496	      38.38018
      17.16755	      35.18184	      24.61449	      22.54196	      17.70606	      18.47366	      23.85542	      27.16464	      38.65311
      17.28433	      34.39717	      25.50150	      21.68907	      18.56748	      18.80629	      23.18163	      26.85760	      37.90257
      17.40112	      35.53152	      25.62091	      22.02170	      17.70606	      18.94275	      23.28398	      26.39704	      37.58699
      17.51791	      35.21595	      26.05588	      21.92788	      17.21991	      19.23274	      23.82130	      26.60173	      38.16696
      17.63469	      35.08802	      26.26058	      22.64431	      18.39690	      18.27750	      23.91512	      26.88319	      37.96227
      17.75148	      34.98567	      26.07294	      22.52490	      17.67194	      19.08775	      23.36074	      28.28193	      40.00068
      17.86827	      34.84921	      24.93859	      23.03664	      18.20927	      18.74659	      23.82130	      27.15611	      38.52518
      17.98505	      34.39717	      25.99618	      22.39697	      17.56107	      18.39690	      24.28186	      27.64226	      38.47400
      18.10184	      35.91533	      26.05588	      22.50785	      17.79135	      18.32014	      22.30315	      26.71261	      38.21814
      18.21862	      36.12002	      25.79148	      22.57608	      18.00457	      18.76365	      24.30745	      27.71902	      38.10726
      18.33541	      35.01126	      25.30534	      21.38203	      18.72953	      19.05363	      23.81277	      26.55909	      38.70428
      18.45220	      35.24154	      25.31386	      22.95988	      17.79988	      19.13039	      23.62514	      26.71261	      37.71493
      18.56898	      34.96861	      25.77443	      22.40550	      18.38837	      18.60160	      23.65072	      26.75525	      38.35460
      18.68577	      35.47182	      25.34798	      22.99400	      18.07280	      18.37984	      24.79360	      27.47168	      38.21814
      18.80255	      35.32683	      26.17529	      22.55902	      18.08133	      18.37132	      24.00041	      26.84054	      38.49959
      18.91934	      34.95156	      24.80213	      22.45667	      17.68900	      19.42037	      23.66778	      27.36081	      39.02839
      19.03613	      34.75539	      26.20940	      22.66137	      18.16662	      18.49072	      22.84048	      26.92583	      38.99427
      19.15291	      34.99420	      26.73820	      22.34580	      17.89370	      18.72100	      22.73813	      27.03671	      38.52518
      19.26970	      34.66157	      24.85330	      22.63578	      17.73165	      19.00246	      23.32662	      27.37786	      38.03050
      19.38648	      35.68504	      26.47380	      22.66990	      17.78282	      19.15598	      23.65925	      26.65291	      38.75546
      19.50327	      35.94091	      25.45886	      22.03876	      18.90011	      18.49925	      23.62514	      26.44821	      38.76399
      19.62006	      35.68504	      25.12623	      22.67842	      18.03869	      18.80629	      24.38421	      27.54844	      38.67017
      19.73684	      34.80656	      26.05588	      21.50143	      18.47366	      18.64424	      23.82983	      26.38851	      38.49959
      19.85363	      35.12214	      25.84266	      22.86606	      17.91928	      19.22421	      24.17952	      27.33522	      39.96657
      19.97042	      34.54217	      24.83624	      23.40339	      18.07280	      18.92570	      23.52279	      27.17317	      37.14349
      20.08720	      36.11149	      25.72325	      22.09846	      17.34784	      19.23274	      23.23281	      27.24140	      38.59341
      20.20399	      34.99420	      26.15823	      22.84900	      18.11545	      19.74447	      22.85753	      28.00901	      37.47612
      20.32077	      35.74475	      26.41410	      21.39909	      17.24550	      18.81482	      24.40980	      27.55697	      38.72134
      20.43756	      34.15836	      25.16034	      22.66137	      17.99604	      18.47366	      23.59955	      26.55909	      37.52729
      20.55434	      35.73622	      26.40557	      22.15816	      17.94487	      18.49072	      22.98547	      26.40557	      38.42283
      20.67113	      35.62534	      25.92795	      23.07076	      17.76576	      19.44596	      22.61872	      26.55909	      38.30342
      20.78792	      34.84068	      25.54415	      22.47373	      18.38837	      19.09628	      23.20722	      26.83201	      38.65311
      20.90470	      36.22237	      25.67208	      21.07499	      17.94487	      19.08775	      23.92365	      27.14758	      39.19896
      21.02149	      35.54858	      26.00471	      22.08993	      18.07280	      18.77217	      23.29251	      27.07082	      38.30342
      21.13828	      34.77245	      26.58467	      22.41403	      18.58454	      18.50778	      23.45456	      28.06018	      37.99638
      21.25506	      35.60828	      25.82560	      21.97905	      18.35426	      19.66771	      23.35221	      26.34587	      38.19255
      21.37185	      34.59334	      25.88530	      22.44814	      17.97898	      18.90011	      22.96841	      25.92795	      39.51453
      21.48863	      34.96008	      26.14117	      21.79142	      17.28814	      18.98540	      23.17310	      27.71902	      39.00280
      21.60542	      35.44623	      26.08147	      22.17522	      18.57601	      18.69542	      23.15605	      27.13053	      38.95163
      21.72220	      35.30124	      25.65502	      23.24133	      17.91928	      19.25832	      23.24133	      26.97701	      38.34607
      21.83899	      36.40147	      26.60173	      22.50785	      17.82546	      19.30950	      23.00253	      27.19876	      38.20961
      21.95578	      35.78739	      26.00471	      22.30315	      17.50989	      18.18368	      23.48867	      27.12200	      37.57846
      22.07256	      35.62534	      25.88530	      22.78930	      17.72312	      19.23274	      22.94282	      27.94930	      38.28637
      22.18935	      35.79592	      25.95354	      22.32874	      17.55254	      18.81482	      23.61661	      28.02606	      37.91109
      22.30614	      34.85774	      25.03241	      22.34580	      18.14104	      19.26685	      23.33515	      27.28405	      38.87486
      22.42292	      35.77033	      25.43327	      22.26904	      17.90222	      18.75512	      23.43750	      27.42051	      39.01133
      22.53971	      35.21595	      25.52709	      23.09634	      18.11545	      18.43102	      24.00894	      27.33522	      37.54435
      22.65649	      34.73833	      26.22646	      21.83406	      17.68900	      18.76365	      23.35221	      26.95995	      38.14991
      22.77328	      35.05390	      25.80001	      22.89165	      18.22632	      18.70394	      22.57608	      27.39492	      37.80875
      22.89007	      35.12214	      26.28616	      22.75519	      18.08133	      18.18368	      23.67631	      27.50580	      38.74693
      23.00685	      35.63387	      26.58467	      23.10487	      17.83399	      18.46513	      23.54838	      26.56762	      39.02839
      23.12364	      35.27565	      26.55056	      22.70401	      18.63571	      18.66130	      23.33515	      26.72967	      37.80022
      23.24042	      34.56775	      26.03029	      22.35433	      17.67194	      18.78070	      24.26481	      26.70408	      37.67228
      23.35721	      35.30977	      25.72325	      21.69760	      17.97046	      18.66983	      24.11129	      27.83843	      38.88339
      23.47400	      36.08590	      25.02388	      22.44814	      17.83399	      18.57601	      23.31809	      26.97701	      39.42924
      23.59078	      35.06243	      25.66355	      22.25198	      18.43102	      17.85958	      23.34368	      27.99195	      39.17338
      23.70757	      35.30977	      26.38851	      21.91935	      18.21779	      18.32867	      22.65284	      27.71902	      38.38871
      23.82435	      36.07737	      26.36292	      21.66348	      18.32014	      19.35214	      23.78719	      26.22646	      39.01986
      23.94114	      35.31830	      25.69767	      21.69760	      17.83399	      19.73594	      24.43538	      26.84054	      38.67017
      24.05793	      34.22660	      25.87677	      22.58461	      17.93634	      19.27538	      23.66778	      27.16464	      38.47400
      24.17471	      33.85985	      25.62091	      23.92365	      17.60371	      19.48008	      23.47161	      26.70408	      37.53582
      24.29150	      34.95156	      25.30534	      22.35433	      17.96193	      19.18156	      23.22428	      26.46527	      38.82369
      24.40828	      34.67010	      25.92795	      21.80847	      17.46725	      18.38837	      23.84689	      27.25846	      38.47400
      24.52507	      35.42918	      25.85972	      22.63578	      18.45660	      18.99393	      23.88100	      27.59962	      39.12220
      24.64186	      34.77245	      25.27975	      22.36285	      17.74018	      18.78923	      22.45667	      26.76378	      38.68723
      24.75864	      36.10296	      25.97059	      23.06223	      17.89370	      18.86599	      24.24775	      27.50580	      37.76610
      24.87543	      35.86415	      26.18382	      22.49932	      18.03016	      19.02804	      24.00894	      26.56762	      38.69576
      24.99221	      35.71916	      24.55479	      22.60167	      17.89370	      18.28603	      23.16457	      26.10706	      39.05397
      25.10900	      35.13066	      25.04947	      22.63578	      18.42249	      18.67836	      23.15605	      27.48874	      39.23308
      25.22579	      35.48035	      25.08358	      22.92576	      18.44808	      18.86599	      23.58249	      27.07935	      39.55718
      25.34257	      35.03685	      25.64649	      22.28609	      18.00457	      17.99604	      23.35221	      27.33522	      38.43136
      25.45936	      35.60828	      25.33092	      22.18375	      17.88517	      18.40543	      23.38633	      27.16464	      39.34396
      25.57615	      35.46329	      25.43327	      22.87459	      18.20074	      18.61013	      23.24986	      27.55697	      39.13073
      25.69293	      35.25007	      25.30534	      22.73813	      18.55042	      17.97898	      24.01747	      27.37786	      38.43989
      25.80972	      35.26713	      26.38851	      23.13899	      18.71247	      18.62718	      24.17952	      27.62520	      37.99638
      25.92650	      35.91533	      26.41410	      22.23492	      17.62930	      19.01951	      23.99188	      27.13906	      38.43989
      26.04329	      36.08590	      26.20940	      22.20081	      18.78923	      18.85746	      23.76160	      27.01112	      38.65311
      26.16007	      36.34177	      25.51003	      22.95135	      18.46513	      18.63571	      23.70190	      27.47168	      37.56994
      26.27686	      34.67010	      25.53562	      23.10487	      18.29456	      18.91717	      23.00253	      27.41198	      39.20749
      26.39365	      35.62534	      25.18593	      22.73813	      19.19009	      18.14956	      23.25839	      26.55909	      38.65311
      26.51043	      34.84921	      25.72325	      22.19228	      17.94487	      17.91928	      24.23069	      26.96848	      38.47400
      26.62722	      36.63176	      26.35439	      22.17522	      18.64424	      18.95981	      23.89806	      26.75525	      38.65311
      26.74401	      35.91533	      26.06441	      21.91082	      18.66983	      18.88305	      23.41191	      26.00471	      38.82369
      26.86079	      34.74686	      24.58038	      23.38633	      18.23485	      18.78923	      24.13687	      27.43757	      38.12432
      26.97758	      35.88121	      25.46739	      22.41403	      17.57813	      17.66341	      23.54838	      26.64438	      37.78316
      27.09436	      35.05390	      26.33734	      22.68695	      17.38196	      18.95981	      22.63578	      26.00471	      39.45483
      27.21115	      35.54005	      25.46739	      21.94494	      17.62930	      18.50778	      23.16457	      26.82348	      39.60835
      27.32793	      36.30766	      25.94501	      22.17522	      18.03869	      18.47366	      23.41191	      26.92583	      38.86633
      27.44472	      34.80656	      24.94712	      22.43962	      18.55042	      18.37984	      22.51638	      27.41198	      38.22667
      27.56151	      35.44623	      26.34587	      23.03664	      18.14104	      18.89158	      23.57396	      28.26488	      38.49106
      27.67829	      35.29271	      26.15823	      22.31168	      17.82546	      18.33720	      24.11129	      27.42904	      39.13926
      27.79508	      35.46329	      26.76378	      22.89165	      17.28814	      19.17303	      23.89806	      27.26699	      39.02839
      27.91187	      35.65946	      25.75737	      22.42256	      18.24338	      19.10480	      23.80424	      27.08788	      38.57635
      28.02865	      34.79803	      25.71472	      22.17522	      18.17515	      18.68689	      23.69337	      27.42904	      38.55077
      28.14544	      35.71063	      26.04735	      22.01317	      19.23274	      18.93423	      23.77866	      27.32669	      38.72987
      28.26222	      35.76180	      25.96206	      21.81700	      17.36490	      19.54831	      22.54196	      28.05165	      38.65311
      28.37901	      34.72128	      25.24563	      22.23492	      18.10692	      18.94275	      23.42044	      27.13906	      38.39724
      28.49580	      34.86627	      25.70620	      22.77224	      17.88517	      18.96834	      23.49720	      26.89172	      38.92604
      28.61258	      35.95797	      25.34798	      22.19228	      18.48219	      19.29244	      23.89806	      27.37786	      37.97080
      28.72937	      35.77886	      25.89383	      21.86818	      18.08133	      18.58454	      23.28398	      27.32669	      39.27572
      28.84615	      35.70210	      26.22646	      21.81700	      18.02163	      18.96834	      24.11129	      26.86613	      38.65311
      28.96294	      34.83215	      25.39915	      22.78930	      18.00457	      18.79776	      24.21363	      27.37786	      38.46547
      29.07973	      36.27354	      26.02177	      21.75730	      17.94487	      18.66130	      24.03452	      27.25846	      38.31195
      29.19651	      35.25007	      26.87466	      22.63578	      17.98751	      18.84041	      23.55691	      26.80643	      38.00491
      29.31330	      35.23301	      25.83413	      21.71466	      18.36279	      18.31161	      24.00894	      26.29469	      39.14779
      29.43008	      34.84921	      25.74031	      22.61872	      17.90222	      19.14745	      23.50573	      27.06230	      39.63394
      29.54687	      35.88121	      25.89383	      21.91082	      18.39690	      18.12398	      23.82130	      26.53350	      39.49747
      29.66366	      35.08802	      25.97912	      23.01105	      18.31161	      18.78923	      23.62514	      26.20940	      37.90257

Monitor Diode	1567551.99
