ALV-7004 CGS-8F Data, Single Run Data
Date :	"11.05.2021"
Time :	"09:23:29"
Samplename : 	"092 2021 Toluol"
SampMemo(0) : 	"Toluol-Messung "
SampMemo(1) : 	""
SampMemo(2) : 	""
SampMemo(3) : 	""
SampMemo(4) : 	""
SampMemo(5) : 	""
SampMemo(6) : 	""
SampMemo(7) : 	""
SampMemo(8) : 	""
SampMemo(9) : 	""
Temperature [K] :	     292.94557
Viscosity [cp]  :	       1.00678
Refractive Index:	       1.33200
Wavelength [nm] :	     632.80000
Angle(1)[°]     :	      34.00000
Angle(2)[°]     :	      50.00000
Angle(3)[°]     :	      66.00000
Angle(4)[°]     :	      82.00000
Angle(5)[°]     :	      98.00000
Angle(6)[°]     :	     114.00000
Angle(7)[°]     :	     130.00000
Angle(8)[°]     :	     146.00000
Duration [s]    :	          30.0
Runs            :	         1
Mode            :	"8 x AUTO, 100 ns STC"
MeanCR1 [kHz]   :	      38.59947
MeanCR2 [kHz]   :	      27.10532
MeanCR3 [kHz]   :	      23.56249
MeanCR4 [kHz]   :	      18.75214
MeanCR5 [kHz]   :	      18.07360
MeanCR6 [kHz]   :	      22.40018
MeanCR7 [kHz]   :	      25.74774
MeanCR8 [kHz]   :	      35.33787
Atten[1]        :	       1.00000
Atten[2]        :	       1.00000
Atten[3]        :	       1.00000
RelSens[1]      :	       1.00000
RelSens[2]      :	       1.00000
RelSens[3]      :	       1.00000
RelSens[4]      :	       1.00000
RelSens[5]      :	       1.00000
RelSens[6]      :	       1.00000
RelSens[7]      :	       1.00000
RelSens[8]      :	       1.00000
DC[1][kHz]      :	       0.00000
DC[2][kHz]      :	       0.00000
DC[3][kHz]      :	       0.00000
DC[4][kHz]      :	       0.00000
DC[5][kHz]      :	       0.00000
DC[6][kHz]      :	       0.00000
DC[7][kHz]      :	       0.00000
DC[8][kHz]      :	       0.00000

"Correlation"
  1.00000E-004	 -1.02259E-001	  1.61898E-001	 -1.23119E-001	  4.27575E-002	  3.21930E-002	  2.34701E-001	  2.10680E-001	 -1.08078E-001
  2.00000E-004	  1.43646E-002	  1.33605E-001	  2.40799E-002	  6.52153E-002	  7.53393E-002	  4.56598E-002	  1.44529E-001	  5.06006E-002
  3.00000E-004	  8.55674E-003	  7.45037E-002	 -7.32036E-003	  9.83633E-003	  2.46068E-002	  3.01656E-003	  8.16691E-002	  3.99698E-002
  4.00000E-004	  2.29761E-002	  5.16178E-002	  2.47444E-002	 -8.99479E-002	  2.86369E-002	 -5.86027E-004	  3.12903E-002	  2.21213E-002
  5.00000E-004	  1.77691E-002	  1.35166E-002	  2.60735E-002	 -5.73104E-003	 -4.78961E-003	  1.21614E-003	  2.45958E-002	  7.90959E-003
  6.00000E-004	 -3.72646E-003	 -1.57294E-003	  1.48498E-003	 -2.15536E-002	  4.83136E-002	  7.22223E-003	  6.44128E-003	  7.46198E-003
  7.00000E-004	  9.75835E-003	  1.19349E-003	 -2.54295E-002	  2.89765E-002	  4.30981E-002	  2.82436E-002	  2.58344E-003	  6.11914E-003
  8.00000E-004	  4.28429E-003	  4.96585E-003	  8.79507E-003	  4.53094E-002	  2.50809E-002	  1.08259E-002	  2.58342E-003	  1.58547E-002
  9.00000E-004	  8.82373E-003	  3.86659E-002	 -3.24074E-002	  1.16227E-002	  1.74947E-002	  6.62159E-003	 -2.10175E-002	  3.37591E-002
  1.00000E-003	  3.75024E-003	  2.25704E-002	 -9.14793E-003	  4.42886E-002	  1.65465E-002	 -5.39060E-003	  5.61393E-002	 -1.43591E-002
  1.10000E-003	 -8.79998E-003	 -5.09386E-003	  1.41115E-002	  2.59140E-002	  2.22361E-002	  1.20271E-002	  3.29922E-002	 -4.51166E-003
  1.20000E-003	  2.13739E-002	 -2.82312E-002	  6.52823E-002	 -3.32929E-002	 -9.05686E-003	  1.68320E-002	  3.07229E-002	  8.02146E-003
  1.30000E-003	  1.38972E-002	  2.50853E-002	  4.00292E-002	  1.46851E-002	 -3.08671E-002	  6.62159E-003	 -1.23941E-002	 -1.37838E-003
  1.40000E-003	  4.55132E-003	  3.56480E-002	  2.87317E-002	 -2.10432E-002	 -2.80223E-002	  2.34387E-002	  2.58342E-003	 -1.68210E-002
  1.50000E-003	 -1.20043E-002	  3.51450E-002	 -1.31353E-002	 -6.69797E-002	  5.16325E-002	  6.62159E-003	 -3.19102E-002	  8.69288E-003
  1.60000E-003	  1.95047E-002	  3.23785E-002	  3.14629E-003	 -2.05329E-002	  1.89171E-002	  1.26276E-002	 -2.35138E-002	  1.97712E-002
  1.80000E-003	  2.54857E-003	  3.70834E-003	 -6.15748E-003	 -1.54288E-002	  8.48610E-003	 -1.50004E-002	  1.23414E-002	  9.69995E-003
  2.00000E-003	  8.28962E-003	  6.97774E-003	 -2.67587E-002	 -3.22722E-002	  1.32275E-002	  8.42337E-003	 -8.08242E-003	  1.01476E-002
  2.20000E-003	  1.93712E-002	  7.73222E-003	 -8.15115E-003	 -4.19990E-003	  2.74515E-002	  3.78532E-002	 -2.63606E-003	  9.14044E-003
  2.40000E-003	 -8.39949E-003	  3.46420E-002	  2.81401E-003	  1.57059E-002	 -2.89315E-003	  2.34386E-002	 -1.64789E-002	 -2.27366E-003
  2.60000E-003	  1.08264E-002	  1.12531E-002	 -1.08094E-002	 -6.75193E-003	 -5.73796E-003	 -5.99126E-003	  2.02840E-002	  1.74213E-002
  2.80000E-003	  2.13739E-002	 -1.07003E-003	  2.44121E-002	  7.02901E-003	 -3.36729E-003	  9.02398E-003	 -1.39816E-004	 -3.50459E-003
  3.00000E-003	  1.48046E-003	 -3.83645E-003	  2.20861E-002	  5.49779E-003	 -2.41902E-003	  1.92343E-002	  2.93613E-002	 -9.09974E-003
  3.20000E-003	  3.28278E-003	  5.09144E-003	  1.71018E-002	 -2.81890E-002	  9.19719E-003	  1.14263E-002	  1.93762E-002	 -6.91774E-003
  3.60000E-003	 -7.19798E-003	  8.73809E-003	 -4.99462E-003	  4.47688E-003	  7.30065E-003	  7.65491E-004	  7.46228E-003	  1.88099E-004
  4.00000E-003	  8.55654E-003	  9.11533E-003	 -2.33640E-003	  2.08098E-002	 -5.73807E-003	 -6.29167E-003	 -1.35289E-002	 -2.07937E-002
  4.40000E-003	 -8.66662E-003	  6.60040E-003	 -1.17342E-003	 -1.64798E-003	 -1.47466E-002	  1.26275E-002	 -2.06884E-003	  5.39158E-003
  4.80000E-003	  1.45228E-004	 -1.25131E-002	  5.80441E-003	  4.98728E-003	 -1.71173E-002	 -7.04243E-003	  4.85257E-003	 -2.10505E-003
  5.20000E-003	 -9.89631E-004	  1.84206E-002	 -1.51291E-002	 -3.53347E-002	  1.27532E-002	  1.54804E-002	  2.12939E-003	 -3.70552E-004
  5.60000E-003	  1.10265E-002	  1.04985E-002	 -1.21386E-002	 -3.17920E-003	  6.82652E-003	  1.21771E-002	  2.77726E-002	 -4.95858E-003
  6.00000E-003	  2.37770E-002	 -8.86642E-003	 -1.56275E-002	 -5.03917E-002	  1.03825E-002	  1.29278E-002	  3.71791E-003	 -7.86805E-003
  6.40000E-003	  9.55767E-003	 -2.70376E-003	 -2.31870E-002	 -1.68327E-002	  9.31551E-003	  7.89751E-003	  8.82366E-003	 -4.62308E-003
  7.20000E-003	 -2.18761E-005	  3.58357E-003	  1.65072E-003	  2.17984E-003	  1.67831E-002	  8.27289E-003	  4.22829E-003	 -6.83316E-003
  8.00000E-003	 -5.55928E-004	  8.61343E-003	 -3.42944E-004	  5.62507E-003	 -8.46456E-003	  3.01756E-003	 -7.17501E-003	 -3.42012E-003
  8.80000E-003	  2.11771E-004	  4.65241E-003	 -1.42285E-003	 -1.05803E-002	 -3.24907E-003	  2.79233E-003	 -2.92005E-003	  1.22385E-003
  9.60000E-003	 -8.56670E-003	  5.59551E-003	  1.33635E-002	 -7.64545E-003	 -1.17835E-002	  9.92457E-003	  6.55434E-003	  3.54584E-003
  1.04000E-002	 -1.65741E-003	 -5.03007E-003	  4.47508E-003	 -9.30427E-003	  1.03823E-002	  7.22183E-003	  4.22829E-003	 -3.08441E-003
  1.12000E-002	 -8.70021E-003	  8.67631E-003	  5.55498E-003	  6.90108E-003	  5.16683E-003	  1.24021E-002	  4.39849E-003	 -2.21716E-003
  1.20000E-002	 -5.22549E-004	  4.84103E-003	  8.37934E-003	  2.15752E-002	  9.90818E-003	 -1.06463E-002	  5.02255E-003	  4.94463E-003
  1.28000E-002	 -2.55905E-003	  4.81047E-003	  4.26698E-003	  1.29617E-002	 -1.08353E-004	 -1.12473E-002	  5.87312E-003	 -5.39284E-003
  1.44000E-002	 -1.57439E-003	 -5.65794E-003	 -1.92169E-003	  1.33445E-002	 -8.40572E-003	  3.58021E-003	 -4.80960E-004	 -6.22974E-004
  1.60000E-002	  7.30421E-003	 -5.03622E-004	 -1.96322E-003	 -1.30689E-002	 -2.41976E-003	 -1.06843E-002	 -1.16175E-003	  2.95792E-003
  1.76000E-002	 -6.01369E-003	 -9.43163E-003	 -4.87065E-003	  9.67202E-004	 -1.69994E-002	  1.31149E-002	  3.77400E-003	  5.04211E-003
  1.92000E-002	 -3.06018E-004	  5.84658E-003	  3.14554E-003	 -3.11603E-003	 -4.04688E-004	  1.39032E-002	 -2.06948E-003	 -3.43217E-004
  2.08000E-002	 -1.95824E-003	  8.89593E-003	  2.77173E-003	  7.75800E-004	 -5.23221E-004	 -6.32984E-003	 -3.48657E-003	 -8.00857E-003
  2.24000E-002	 -5.46295E-003	 -3.33292E-003	  3.39475E-003	 -1.22395E-002	  3.50693E-003	  4.78142E-003	  9.95325E-004	  9.29679E-004
  2.40000E-002	 -7.03173E-003	  1.69694E-003	 -3.43370E-004	  5.84398E-004	 -1.08353E-004	 -1.33728E-003	  1.44332E-004	 -2.41342E-003
  2.56000E-002	 -7.09099E-003	 -2.18375E-003	 -4.70536E-003	  3.90117E-003	 -7.84176E-003	 -1.15044E-003	 -1.78544E-003	  9.57665E-004
  2.88000E-002	 -1.20808E-003	  2.67322E-003	  2.12709E-003	 -2.25608E-005	  1.25571E-003	  1.32707E-003	 -1.34576E-003	 -3.09882E-003
  3.20000E-002	  9.78189E-004	 -3.92849E-003	 -9.71029E-003	  3.93988E-004	  1.96691E-003	  4.87441E-003	 -1.77126E-003	  4.82078E-004
  3.52000E-002	  4.62475E-003	  2.98759E-003	  1.85711E-003	 -2.28564E-003	 -4.92664E-004	 -2.18274E-003	  1.57661E-004	 -1.21745E-003
  3.84000E-002	 -3.76151E-003	  4.68517E-003	  3.20699E-003	  3.10552E-003	  1.11053E-005	  8.51560E-003	  9.37738E-004	 -2.19660E-003
  4.16000E-002	  5.66782E-003	  3.29890E-004	 -4.74393E-003	  4.92383E-003	 -4.49318E-003	 -1.03783E-003	  7.61803E-003	  2.28738E-003
  4.48000E-002	 -3.25155E-003	  9.46224E-003	 -2.25185E-003	  4.31773E-003	  5.96743E-003	  1.64614E-003	 -3.52934E-004	  6.40681E-003
  4.80000E-002	 -2.20849E-003	 -3.83547E-003	 -1.50422E-003	  5.17904E-003	  6.73790E-003	 -1.43198E-003	 -1.96919E-004	  1.63694E-003
  5.12000E-002	 -2.44107E-004	 -5.99328E-003	 -1.19293E-003	  5.72148E-003	 -6.15259E-003	 -2.12672E-003	  3.86024E-003	 -3.83422E-004
  5.76000E-002	  2.25508E-003	 -4.49218E-003	 -2.23130E-003	  6.10177E-005	  3.03379E-003	 -3.38425E-003	  2.11570E-003	  2.28548E-004
  6.40000E-002	 -3.23380E-004	 -1.75589E-003	  2.64904E-003	  2.20520E-004	  6.63113E-004	  2.01184E-003	 -1.18158E-004	  3.14939E-003
  7.04000E-002	  3.24391E-003	 -1.35507E-003	 -2.63626E-003	 -1.51805E-003	  2.61282E-004	  1.98369E-003	  8.53392E-004	  9.39298E-004
  7.68000E-002	  3.82803E-003	 -2.09383E-003	 -2.56209E-003	  2.50140E-003	 -1.20557E-003	 -5.37376E-003	  5.05903E-004	 -3.76428E-004
  8.32000E-002	  1.32884E-003	  4.49218E-003	  2.25595E-003	 -6.00006E-003	  1.95039E-003	  6.10491E-003	 -3.66396E-003	 -2.26743E-003
  8.96000E-002	  2.56801E-003	  2.51952E-003	 -4.50236E-003	 -5.44180E-003	 -2.64279E-003	 -5.72897E-003	  9.17217E-004	  3.78584E-003
  9.60000E-002	  9.12557E-004	  4.43393E-004	 -4.08701E-003	  4.36757E-003	 -1.36856E-003	  2.81095E-003	 -1.53616E-004	  7.18989E-004
  1.02400E-001	  3.69577E-004	  9.93104E-005	 -2.86588E-003	  8.33031E-004	  1.19666E-003	  6.25184E-004	 -1.40269E-003	 -1.35736E-003
  1.15200E-001	 -3.35418E-003	  1.91350E-003	 -6.74620E-005	 -2.86925E-003	  1.65598E-003	 -5.66651E-004	 -6.62850E-004	 -3.87827E-004
  1.28000E-001	 -1.27847E-003	  1.76547E-003	 -2.66710E-003	  1.77229E-004	  5.18977E-003	  2.31440E-003	  3.59920E-003	  1.41136E-003
  1.40800E-001	 -3.71299E-003	 -2.38685E-003	 -1.38990E-003	 -8.19655E-004	 -1.09816E-003	  6.25184E-004	 -2.80806E-003	 -1.71671E-003
  1.53600E-001	  1.23627E-003	  1.78512E-003	  1.72821E-003	 -5.48507E-003	  1.39039E-004	 -9.13878E-004	  1.17387E-003	 -3.91346E-004
  1.66400E-001	  6.45891E-004	 -7.50781E-004	  1.66590E-003	  9.02960E-004	  1.54100E-003	  2.11732E-003	  1.67738E-003	 -5.26887E-004
  1.79200E-001	 -5.79815E-004	 -2.26632E-003	  1.34295E-004	 -3.49126E-004	 -3.83749E-003	  2.80709E-003	  3.41127E-003	 -3.15575E-003
  1.92000E-001	  8.99259E-004	 -1.75547E-003	 -3.35317E-003	  5.69853E-004	  5.33462E-004	 -1.78195E-003	  3.94669E-003	  1.76016E-003
  2.04800E-001	 -2.52515E-004	 -5.53499E-004	  4.15654E-004	 -3.36911E-004	 -1.42446E-003	  4.20563E-003	  8.72492E-004	 -4.58743E-004
  2.30400E-001	 -3.28659E-004	 -7.87985E-004	 -5.24461E-004	 -2.06352E-003	  1.09265E-003	  1.51512E-004	 -2.32569E-004	  9.82914E-004
  2.56000E-001	  1.41943E-003	 -2.31859E-003	  9.91956E-004	  2.52401E-003	 -4.51573E-003	  1.56388E-003	  6.23032E-006	 -1.65735E-003
  2.81600E-001	  1.44863E-003	  1.70079E-003	  1.20372E-003	  2.51604E-003	  1.32956E-004	  1.53858E-004	 -1.04156E-003	 -1.41365E-004
  3.07200E-001	 -1.55437E-003	 -1.14889E-003	 -2.78573E-004	 -6.89960E-004	  2.62222E-003	 -3.83406E-004	  1.53694E-003	 -2.17436E-004
  3.32800E-001	 -6.34279E-004	  8.73596E-004	 -9.36838E-004	 -4.91278E-003	  2.26661E-003	 -9.44005E-006	  1.20927E-004	  3.52254E-005
  3.58400E-001	  5.87058E-004	 -1.37625E-004	  8.09133E-004	  1.84798E-003	 -9.80251E-004	  6.70514E-005	  5.52286E-004	 -9.20353E-004
  3.84000E-001	 -1.01530E-003	  8.55912E-004	 -1.17529E-003	 -1.19454E-003	 -1.80808E-003	 -1.39176E-003	 -1.21530E-003	 -3.34598E-004
  4.09600E-001	  4.95421E-004	 -8.54847E-004	 -4.39751E-004	 -1.51719E-003	  5.20182E-004	 -7.20000E-004	  1.14889E-003	 -4.98158E-004
  4.60800E-001	  6.11105E-004	  7.64846E-004	  3.04166E-003	 -1.85399E-003	  1.15369E-003	  6.08857E-004	 -1.64837E-004	  1.00471E-003
  5.12000E-001	 -8.84581E-004	  1.32515E-003	  2.04499E-003	  1.02905E-003	  4.18533E-004	 -1.65375E-004	 -1.75091E-003	  7.14341E-005
  5.63200E-001	 -2.19814E-004	  1.79978E-004	 -8.85503E-004	  1.10880E-003	  8.83421E-004	  7.90927E-004	 -5.65446E-005	 -5.83858E-005
  6.14400E-001	 -7.39893E-004	  6.73536E-005	  1.99625E-004	 -1.59878E-003	  2.37261E-003	  7.42587E-004	  6.73159E-004	  4.78699E-005
  6.65600E-001	  1.23823E-003	 -2.27442E-003	 -7.84638E-004	  1.59927E-003	 -1.66142E-003	  5.26498E-004	  1.26555E-004	  4.32948E-004
  7.16800E-001	  9.59524E-004	 -1.77860E-003	 -8.03918E-004	 -1.80644E-003	  3.07404E-004	  4.17159E-004	 -2.36551E-004	 -8.12002E-004
  7.68000E-001	 -2.90000E-004	  1.04952E-003	  1.31720E-003	 -6.96863E-005	  2.49914E-004	 -3.03315E-004	 -3.71637E-004	  1.33434E-003
  8.19200E-001	  3.37521E-005	  5.92326E-004	  1.88338E-004	  3.11151E-004	 -2.56108E-004	  1.13557E-003	 -2.22243E-004	  1.76089E-004
  9.21600E-001	  4.80764E-004	  2.25150E-004	 -1.47268E-003	 -1.93140E-004	  1.39479E-004	 -4.53656E-004	  2.70885E-004	 -5.24710E-004
  1.02400E+000	  3.80239E-004	  8.05836E-004	  9.16267E-004	  1.47341E-003	 -7.38749E-004	  6.26393E-004	 -9.31159E-005	 -7.04348E-004
  1.12640E+000	 -1.75018E-004	 -5.17245E-004	  1.15056E-003	 -1.06759E-003	 -1.19253E-003	 -1.14827E-003	  3.51456E-004	  8.62841E-006
  1.22880E+000	  2.71463E-005	  4.87336E-004	 -1.75646E-004	  1.06752E-003	 -4.18397E-004	 -1.02416E-003	  5.22203E-004	  8.79719E-005
  1.33120E+000	  3.07545E-004	  1.69953E-004	 -1.68507E-004	  2.55175E-004	  9.15104E-004	 -9.26210E-004	  6.25280E-004	 -4.55181E-004
  1.43360E+000	  3.94608E-004	 -4.70539E-006	 -9.71920E-005	 -8.26934E-004	 -1.42606E-003	 -8.07831E-004	  2.91962E-004	 -1.60779E-004
  1.53600E+000	  4.43446E-005	 -3.13648E-004	  4.10151E-004	 -6.16583E-004	  1.60861E-003	 -5.79903E-004	 -7.15829E-004	  3.63980E-005
  1.63840E+000	 -3.26029E-004	  7.71173E-004	 -5.63756E-005	  1.69377E-004	  7.66976E-004	  4.70453E-004	 -5.02348E-004	 -2.48740E-004
  1.84320E+000	 -3.37214E-004	  5.85240E-004	  1.01339E-004	 -4.42986E-004	  1.29502E-003	  4.39697E-004	  1.76309E-004	 -1.01807E-004
  2.04800E+000	  2.30045E-004	  6.83120E-004	 -6.56773E-004	  4.60975E-005	 -5.87041E-004	  7.17559E-004	  2.17389E-004	  2.51420E-006
  2.25280E+000	 -1.82758E-005	 -4.62423E-004	  6.33288E-004	  4.52730E-004	 -1.11474E-003	  5.96666E-004	 -1.63496E-004	 -1.82810E-004
  2.45760E+000	 -6.24767E-006	  8.74134E-005	  1.06746E-003	 -8.58057E-005	 -2.03035E-004	 -3.49384E-004	  5.24292E-004	  3.81278E-004
  2.66240E+000	 -4.95277E-004	 -9.91036E-005	  5.50627E-004	 -6.96477E-004	 -1.39230E-003	  4.97150E-005	 -2.07193E-004	 -3.59541E-004
  2.86720E+000	  6.64933E-005	 -4.46164E-004	 -4.56085E-004	 -4.81819E-004	  2.83325E-004	 -2.48142E-004	 -6.12485E-004	 -3.33594E-004
  3.07200E+000	  4.97267E-005	 -2.94730E-004	 -4.15646E-005	 -5.71202E-004	 -6.72314E-004	  5.96566E-004	 -1.10700E-004	  3.17457E-004
  3.27680E+000	  1.22648E-005	 -6.60667E-005	 -1.03992E-004	  7.87672E-004	  4.83030E-004	  9.45346E-006	 -3.22676E-005	 -2.16779E-004
  3.68640E+000	 -2.63794E-004	  9.47183E-004	 -3.14859E-004	 -6.02881E-005	  9.32515E-004	  4.24989E-004	 -1.15907E-004	  3.17651E-004
  4.09600E+000	  1.25027E-005	 -7.78269E-005	  6.55794E-005	 -2.98654E-004	 -5.51607E-004	 -2.18434E-004	  1.32564E-004	 -4.74034E-005
  4.50560E+000	 -1.29983E-004	 -1.52620E-004	  8.48649E-005	  1.25258E-003	  9.68896E-005	 -4.81083E-004	 -2.05367E-004	 -5.73956E-005
  4.91520E+000	  2.13895E-004	  1.63381E-004	 -5.01155E-004	 -4.26087E-004	  2.98205E-004	 -1.56880E-004	 -2.85838E-004	  2.29549E-004
  5.32480E+000	 -1.04702E-005	 -5.38726E-004	  9.59313E-006	 -1.22165E-003	 -7.38104E-004	 -2.07692E-005	  1.18090E-004	 -2.33485E-004
  5.73440E+000	  9.38649E-005	  4.16652E-004	  7.55116E-004	  7.18369E-005	  4.24152E-005	  2.36015E-004	 -2.03760E-004	 -2.57800E-004
  6.14400E+000	 -8.41509E-005	  1.82692E-004	  5.39413E-004	  3.41362E-004	  1.48954E-004	  6.81694E-005	 -1.81884E-005	  2.13553E-005
  6.55360E+000	 -1.17541E-004	 -1.07079E-004	  1.16270E-004	 -9.25603E-006	  5.34984E-004	 -3.46789E-004	 -5.00516E-004	  4.30147E-005
  7.37280E+000	 -1.22939E-004	  1.79533E-004	 -1.30865E-005	  2.65165E-004	 -2.67460E-004	 -3.91649E-004	  1.07975E-004	 -8.20446E-005
  8.19200E+000	  4.17186E-005	  1.39497E-004	 -2.49411E-004	 -3.92548E-004	  7.12033E-006	  1.27305E-004	  1.89962E-005	 -1.26589E-004
  9.01120E+000	  9.82395E-005	  1.92082E-004	  7.21694E-004	 -4.65611E-004	 -3.04955E-004	  9.77779E-005	  4.49327E-006	 -2.19410E-004
  9.83040E+000	  1.29434E-004	 -1.57513E-004	  2.60717E-004	 -1.54539E-005	 -3.06469E-004	 -2.38003E-004	 -3.21355E-005	 -1.46013E-004
  1.06496E+001	 -6.40371E-005	 -3.02359E-004	 -4.79236E-005	  6.70214E-004	  7.44678E-005	 -1.73458E-004	  4.51503E-004	 -8.45928E-005
  1.14688E+001	  3.31194E-004	 -2.46449E-004	 -3.61206E-004	  3.17093E-005	 -2.77770E-004	 -2.31906E-004	 -1.20099E-004	 -3.01413E-004
  1.22880E+001	 -2.25407E-004	  4.99456E-004	 -1.98557E-004	 -1.46138E-004	  2.77245E-004	  1.43135E-005	  2.97945E-004	  9.62471E-005
  1.31072E+001	  1.36400E-004	  3.28802E-004	 -1.38039E-004	 -3.69641E-004	 -2.70460E-005	  4.62935E-004	  5.81564E-006	  2.86630E-005
  1.47456E+001	  1.47419E-004	  2.06527E-004	 -1.87697E-004	 -3.12284E-004	 -1.62611E-004	  5.52961E-005	 -3.01584E-004	 -7.12432E-005
  1.63840E+001	 -6.68589E-005	 -6.44204E-005	 -1.47789E-004	 -2.12058E-004	  2.89898E-006	 -5.91851E-006	 -2.38334E-004	 -1.54851E-004
  1.80224E+001	  5.29807E-005	  1.96856E-004	 -3.50056E-005	 -3.45230E-005	  2.02741E-004	 -1.15487E-004	 -1.00515E-004	  1.00565E-005
  1.96608E+001	  4.63532E-005	 -8.03169E-005	 -4.15485E-006	  9.77852E-005	 -2.65394E-004	  1.18790E-004	 -1.69979E-004	 -8.43849E-005
  2.12992E+001	  2.46381E-006	 -6.63376E-005	 -1.26772E-004	 -8.84508E-005	  3.00966E-004	 -1.04601E-004	  1.47490E-004	 -7.01281E-005
  2.29376E+001	  1.17214E-004	 -2.56098E-004	 -3.26624E-005	  1.34451E-004	 -4.18200E-005	 -1.56963E-004	  1.81006E-004	 -3.41825E-005
  2.45760E+001	 -1.06998E-004	 -1.61434E-004	 -1.99208E-004	 -1.78904E-005	  1.46228E-004	 -1.21478E-004	 -6.93822E-006	  1.64270E-004
  2.62144E+001	  9.54896E-005	 -4.99040E-005	 -1.58195E-004	  2.13072E-004	  3.81294E-005	 -1.59667E-005	  9.11799E-005	  4.84883E-006
  2.94912E+001	 -7.77723E-005	 -3.47103E-005	  1.56406E-004	  1.10821E-005	 -4.16135E-005	 -9.66158E-006	 -3.61963E-005	  1.39696E-005
  3.27680E+001	  1.76036E-004	  8.38463E-005	  1.41659E-005	  2.24471E-004	 -1.55507E-005	 -1.64540E-005	  1.02487E-004	  1.47357E-004
  3.60448E+001	 -8.48407E-005	  3.64734E-005	  1.07124E-004	 -6.10682E-005	 -1.65630E-004	  1.00896E-004	 -1.30629E-005	 -9.51571E-005
  3.93216E+001	 -2.64379E-005	  2.14281E-005	  9.33911E-005	  2.42412E-005	  2.04478E-004	  7.13544E-005	 -3.50385E-005	 -8.12645E-005
  4.25984E+001	  2.66302E-005	 -2.24308E-005	 -3.03735E-006	  2.18801E-004	 -5.19324E-005	  4.78664E-005	 -1.11214E-004	  1.09796E-005
  4.58752E+001	 -8.31642E-005	  1.26310E-004	 -1.32704E-004	  1.33778E-004	  4.39158E-005	 -9.28658E-005	 -5.31916E-005	 -1.86213E-005
  4.91520E+001	  9.31772E-005	  1.33473E-004	 -1.53423E-004	 -1.46026E-004	  4.36599E-005	  2.37763E-004	 -1.35218E-004	 -9.46417E-005
  5.24288E+001	 -3.16374E-005	 -1.31822E-004	 -2.04844E-004	 -1.67814E-004	 -9.26428E-006	  1.82430E-004	 -1.16597E-004	  3.70810E-005
  5.89824E+001	 -3.57635E-005	 -1.56180E-004	  3.79806E-005	 -6.02182E-005	 -1.75158E-004	 -1.05498E-004	  9.91067E-005	  5.82927E-005
  6.55360E+001	 -6.44885E-005	 -9.61778E-005	  8.87906E-005	 -4.77390E-005	 -5.50181E-005	 -2.73008E-005	 -4.35272E-005	 -5.92809E-005
  7.20896E+001	 -5.48745E-005	  7.51664E-005	  2.55202E-004	  1.07534E-004	  9.91280E-005	  3.60094E-007	  8.55167E-005	  3.81628E-006
  7.86432E+001	 -1.94003E-005	  8.08065E-005	 -5.31054E-005	  7.53370E-005	 -1.52264E-004	  3.28725E-005	 -8.12505E-005	  1.74724E-005
  8.51968E+001	  7.72804E-005	  7.77975E-006	 -1.76057E-004	 -8.93818E-006	 -2.10573E-006	  3.45924E-005	  1.14360E-004	  6.46422E-005
  9.17504E+001	  2.71048E-006	 -1.14510E-004	  6.41277E-005	  8.77746E-005	 -6.17366E-006	  2.18543E-005	 -5.43500E-005	 -2.85688E-005
  9.83040E+001	  4.51998E-005	  3.98932E-005	 -9.27202E-006	 -1.20104E-004	  1.76146E-004	  1.44083E-005	 -5.17176E-005	  3.61435E-005
  1.04858E+002	  1.81775E-005	  1.50385E-005	  2.99931E-005	 -1.80097E-004	  1.13997E-004	 -3.57690E-005	  3.24113E-006	 -1.61328E-005
  1.17965E+002	  3.64702E-005	  2.88310E-006	  7.62731E-005	 -1.90826E-005	  5.99672E-005	 -5.87078E-005	  6.93824E-005	 -2.98468E-005
  1.31072E+002	 -2.57096E-005	  1.30847E-004	 -3.72176E-005	  5.10108E-005	  9.29522E-005	 -1.33585E-005	  1.14332E-005	  1.56264E-005
  1.44179E+002	  1.91809E-006	  2.53462E-006	 -5.12546E-006	  4.79465E-005	 -1.14179E-004	 -1.03197E-004	  5.32906E-005	 -7.75955E-006
  1.57286E+002	 -4.45427E-005	 -1.41758E-005	 -7.61911E-005	  6.37172E-005	 -1.61041E-004	  3.65613E-005	 -2.23771E-005	  5.94409E-005
  1.70394E+002	  8.19711E-005	  5.39825E-005	  1.09619E-005	  1.32113E-005	 -8.46281E-005	 -2.94050E-006	  8.08253E-006	  5.01550E-005
  1.83501E+002	  1.12702E-004	  2.37825E-005	  7.42753E-005	 -6.16992E-005	 -1.52055E-004	  4.76630E-005	  2.16337E-005	  1.66703E-006
  1.96608E+002	 -5.02517E-005	 -3.09836E-005	  8.84508E-005	 -5.89374E-005	 -2.45484E-005	  7.64371E-005	  1.09717E-004	 -2.41771E-005
  2.09715E+002	  2.74308E-006	 -2.00929E-005	  8.42877E-006	  4.68337E-005	 -3.41220E-005	  2.35667E-005	  9.26325E-007	 -2.14399E-005
  2.35930E+002	 -7.19954E-006	  1.21115E-006	 -6.11206E-005	 -4.89785E-005	 -2.52490E-005	 -1.36082E-005	 -2.90247E-005	 -6.18211E-006
  2.62144E+002	  1.77602E-005	  3.97505E-005	 -8.22279E-005	 -4.08631E-005	  2.93313E-006	  6.46136E-005	 -6.58979E-005	 -3.09684E-005
  2.88358E+002	 -2.25611E-005	 -1.20619E-005	 -2.33809E-005	  6.92547E-005	 -2.31347E-005	  8.83840E-006	 -5.06164E-005	 -6.81128E-006
  3.14573E+002	 -2.30505E-005	 -6.07970E-005	 -8.36877E-005	 -1.64415E-005	  6.03689E-005	 -2.37896E-005	 -2.10501E-005	  3.47516E-006
  3.40787E+002	  9.82345E-006	 -3.01364E-005	 -2.88461E-005	  1.03295E-004	  6.35178E-005	  7.36379E-005	 -8.81747E-006	 -2.51502E-005
  3.67002E+002	 -4.26291E-006	 -3.94914E-005	  7.23147E-005	 -9.94989E-005	 -3.03412E-005	  6.80382E-005	  6.13413E-005	 -7.88932E-006
  3.93216E+002	 -5.30931E-006	  5.40569E-005	 -6.70870E-005	  2.11006E-005	  1.51787E-005	  3.99969E-005	 -1.59470E-006	 -4.09741E-005
  4.19430E+002	  4.67415E-005	 -2.01229E-005	 -8.64325E-005	  2.82428E-005	  6.64079E-005	  5.23970E-006	  6.02753E-005	 -1.81666E-005
  4.71859E+002	  2.37108E-005	 -2.74513E-005	 -8.17496E-006	  2.20871E-005	 -3.43816E-005	  3.76667E-005	 -6.00823E-006	 -3.68325E-006
  5.24288E+002	  7.39771E-007	  3.63188E-005	 -3.29014E-005	 -8.47632E-006	 -2.39770E-005	 -4.45771E-005	 -2.03658E-005	  1.99305E-005
  5.76717E+002	  8.26395E-006	 -1.21153E-005	  2.99736E-005	 -5.19988E-005	 -3.17669E-005	 -1.59280E-005	 -4.01109E-005	 -2.31987E-005
  6.29146E+002	  8.75575E-006	  5.93925E-005	 -4.49630E-005	 -1.10211E-005	  6.70803E-007	 -2.38435E-005	 -6.30038E-006	 -2.11258E-005
  6.81574E+002	  2.38958E-005	  1.79914E-005	  5.97854E-005	  8.31436E-005	 -1.30216E-005	  6.30718E-006	  1.46712E-005	  4.77053E-006
  7.34003E+002	 -9.52811E-006	  1.37119E-005	 -1.29576E-005	 -2.53785E-005	 -1.52655E-005	 -2.76928E-005	 -1.69481E-005	 -1.37489E-005
  7.86432E+002	  1.56002E-005	  2.34555E-005	  6.27103E-005	  5.41134E-005	 -6.91761E-005	  1.90438E-005	  4.92203E-005	  5.16542E-006
  8.38861E+002	  2.26509E-005	  1.10042E-005	  1.16818E-005	  2.80900E-005	 -2.21452E-005	 -4.54104E-005	  1.45380E-005	 -1.81813E-005
  9.43718E+002	  3.20609E-005	  1.20270E-005	  3.37067E-006	 -7.04582E-005	  1.79292E-005	 -1.72154E-005	  1.60852E-005	 -5.70539E-006
  1.04858E+003	  1.70900E-005	 -5.02946E-006	 -2.38106E-005	 -9.61332E-006	 -2.48235E-005	 -3.53808E-006	 -1.16253E-005	 -1.53827E-005
  1.15343E+003	 -1.02843E-005	 -4.53046E-005	  3.91440E-006	 -4.18011E-005	 -4.04388E-005	 -7.21121E-006	 -2.35853E-005	  7.74633E-006
  1.25829E+003	 -5.07529E-006	  8.85246E-006	 -1.42206E-005	  5.25867E-005	  4.66096E-005	 -9.96732E-006	 -3.23608E-007	  2.42480E-005
  1.36315E+003	  1.42735E-005	 -3.48774E-005	 -1.43760E-005	 -2.27390E-005	  4.79656E-005	 -2.17577E-005	  3.83879E-005	 -4.92356E-006
  1.46801E+003	  2.92803E-005	 -3.08125E-007	 -1.68619E-006	  3.98095E-006	 -2.56793E-005	  4.93730E-005	 -1.10769E-007	  6.03850E-006
  1.57286E+003	 -2.08801E-005	  3.94198E-006	 -4.30220E-006	  7.04769E-005	 -1.64301E-006	  5.25507E-005	  5.24803E-006	  7.76314E-006
  1.67772E+003	  8.33026E-006	 -3.50606E-006	  4.22947E-005	 -8.74717E-006	  3.83292E-005	  5.66048E-005	  2.01357E-005	  7.79164E-007
  1.88744E+003	  2.71716E-005	 -8.88380E-006	 -5.36091E-006	  1.32115E-005	 -9.84967E-006	  3.21974E-005	  2.45865E-005	  2.12582E-006
  2.09715E+003	  2.86254E-006	  3.18715E-005	 -1.60248E-005	  1.82109E-005	 -4.94745E-005	  1.28502E-005	 -5.01655E-006	  7.98667E-006
  2.30687E+003	 -7.39117E-006	  5.14771E-006	  1.33981E-005	  1.95153E-005	  2.79205E-006	 -1.23124E-006	 -1.43058E-005	 -1.72810E-005
  2.51658E+003	 -2.94731E-006	  2.92264E-005	  5.35224E-006	  1.21670E-005	 -4.14614E-005	 -1.25787E-005	 -1.28618E-006	 -9.68369E-006
  2.72630E+003	 -3.26798E-007	  2.57368E-005	  2.53116E-005	 -1.30241E-005	  7.19145E-005	 -3.23706E-005	 -2.47108E-005	  7.97894E-006
  2.93601E+003	  1.02504E-005	  1.86650E-005	 -1.63645E-005	 -1.37738E-005	  2.24514E-005	 -1.57342E-005	 -1.42377E-005	  4.93209E-006
"Count Rate"
       0.11679	      35.36094	      25.74031	      23.06223	      17.45019	      18.43955	      23.56543	      27.44610	      38.61900
       0.23357	      34.96008	      24.98124	      22.39697	      17.84252	      18.34573	      24.36715	      27.42904	      37.96227
       0.35036	      35.29271	      25.62943	      22.57608	      17.88517	      17.95340	      22.76371	      27.37786	      37.56994
       0.46714	      35.98355	      26.51644	      21.71466	      17.75723	      19.06216	      23.99188	      26.35439	      38.68723
       0.58393	      35.42065	      25.43327	      22.90871	      18.20074	      18.41396	      23.03664	      27.25846	      37.61258
       0.70072	      35.37800	      24.61449	      22.19228	      18.05574	      18.89158	      22.57608	      27.52286	      38.54224
       0.81750	      34.92597	      25.87677	      22.49932	      17.20285	      18.60160	      23.08781	      26.59320	      38.11579
       0.93429	      35.65093	      25.82560	      22.05581	      18.02163	      18.43102	      23.28398	      26.24352	      38.58488
       1.05107	      34.61893	      25.67208	      22.34580	      17.73165	      18.58454	      22.50785	      27.10494	      38.60194
       1.16786	      35.55711	      25.51856	      22.57608	      17.97898	      19.08775	      23.78719	      27.24993	      38.89192
       1.28465	      35.55711	      26.36292	      22.06434	      18.00457	      18.56748	      23.77866	      27.02818	      38.58488
       1.40143	      35.43771	      26.18382	      21.86818	      18.48219	      18.11545	      23.09634	      26.53350	      39.23308
       1.51822	      34.90891	      25.91089	      21.94494	      18.02163	      18.16662	      24.16246	      26.30322	      38.61900
       1.63500	      35.20742	      26.24352	      22.31168	      18.60160	      18.84894	      23.31809	      26.36292	      37.90257
       1.75179	      34.81509	      24.93006	      22.12404	      18.20927	      19.06216	      23.46309	      26.24352	      38.71281
       1.86858	      35.16478	      25.59532	      21.98758	      17.98751	      18.74659	      23.45456	      27.59109	      37.20319
       1.98536	      34.59334	      25.59532	      22.71254	      18.13251	      19.02804	      22.92576	      27.60815	      37.61258
       2.10215	      35.54858	      26.63585	      21.73171	      18.04722	      18.59307	      23.79572	      27.15611	      38.41430
       2.21894	      35.18184	      26.45674	      23.05370	      18.41396	      18.20074	      23.48867	      26.90025	      38.55929
       2.33572	      36.06884	      26.03029	      22.08993	      18.05574	      18.86599	      23.26692	      26.51644	      38.44842
       2.45251	      35.37800	      26.04735	      22.82342	      18.05574	      18.45660	      23.88100	      26.85760	      38.00491
       2.56929	      34.96861	      26.31175	      22.61019	      17.86811	      18.60160	      23.44603	      26.12411	      39.76187
       2.68608	      35.36947	      25.77443	      22.43109	      18.27750	      18.34573	      23.81277	      26.61026	      38.78957
       2.80287	      34.98567	      25.68914	      22.56755	      17.79988	      18.37132	      22.97694	      27.04524	      39.14779
       2.91965	      34.61893	      25.06653	      22.09846	      18.01310	      18.07280	      24.11129	      27.71902	      37.80022
       3.03644	      36.50382	      25.23710	      22.45667	      17.92781	      18.70394	      22.59314	      26.78937	      38.47400
       3.15322	      35.42918	      26.22646	      22.44814	      18.36279	      18.16662	      23.55691	      26.83201	      38.85781
       3.27001	      35.70210	      26.05588	      22.13257	      17.16874	      19.25832	      22.98547	      27.14758	      38.89192
       3.38680	      35.39506	      25.92795	      22.01317	      17.98751	      18.49925	      23.46309	      26.55056	      37.78316
       3.50358	      36.41000	      25.35651	      22.05581	      17.91075	      18.43102	      23.62514	      27.47168	      38.21814
       3.62037	      35.36094	      25.54415	      21.43320	      18.02163	      18.69542	      24.33304	      27.30111	      37.70640
       3.73715	      35.55711	      25.17740	      22.40550	      17.73165	      18.91717	      23.73601	      27.08788	      37.91109
       3.85394	      34.87479	      25.14329	      22.47373	      18.62718	      18.75512	      23.47161	      27.01112	      38.88339
       3.97073	      35.56564	      24.83624	      22.43109	      18.06427	      18.86599	      23.25839	      27.59109	      39.03691
       4.08751	      34.99420	      26.74673	      22.26051	      17.73165	      18.79776	      23.43750	      26.06441	      38.12432
       4.20430	      35.55711	      25.44180	      21.64643	      17.52695	      19.50566	      23.59102	      26.39704	      39.84716
       4.32108	      34.52511	      25.88530	      21.23704	      18.30308	      18.72100	      24.08570	      27.01112	      37.74905
       4.43787	      34.90038	      25.11770	      23.02811	      18.27750	      18.75512	      23.58249	      27.90666	      38.59341
       4.55466	      35.07096	      25.53562	      22.56755	      17.84252	      19.04510	      23.18163	      26.88319	      38.24372
       4.67144	      35.18184	      25.62091	      21.45879	      17.92781	      19.40332	      23.09634	      26.90878	      39.06250
       4.78823	      34.69569	      26.03029	      22.28609	      17.74018	      18.58454	      23.98335	      26.90878	      38.26931
       4.90501	      34.78098	      25.68914	      23.18163	      18.01310	      18.25191	      22.19228	      27.24993	      38.02197
       5.02180	      35.25860	      26.36292	      22.02170	      17.77429	      19.19009	      23.48867	      26.77231	      38.59341
       5.13859	      36.20531	      25.02388	      22.24345	      17.76576	      18.26897	      23.14752	      27.18170	      38.34607
       5.25537	      35.55711	      25.04947	      22.80636	      18.12398	      18.22632	      23.12193	      27.36934	      39.19043
       5.37216	      35.25007	      26.42263	      22.58461	      17.66341	      17.98751	      23.40339	      26.47380	      37.91962
       5.48894	      34.87479	      25.76590	      22.70401	      17.72312	      18.94275	      23.68484	      27.64226	      39.29278
       5.60573	      35.25007	      25.48444	      22.18375	      18.23485	      18.52484	      22.92576	      26.88319	      38.35460
       5.72252	      35.09655	      25.15182	      21.71466	      18.31161	      18.49072	      23.48014	      26.47380	      38.65311
       5.83930	      34.96008	      24.98977	      22.06434	      18.00457	      18.28603	      23.89806	      26.29469	      39.13926
       5.95609	      35.07949	      25.76590	      22.28609	      18.26897	      18.90011	      23.56543	      27.43757	      38.99427
       6.07287	      34.80656	      25.51856	      22.78077	      18.48219	      19.08775	      23.70190	      27.09641	      38.60194
       6.18966	      34.90891	      26.11558	      23.12193	      17.80841	      19.00246	      23.28398	      27.42051	      38.08167
       6.30645	      35.06243	      26.46527	      23.40339	      17.68047	      19.07069	      23.41191	      27.28405	      38.49959
       6.42323	      35.51447	      25.39915	      22.20081	      17.98751	      18.52484	      23.12193	      26.91730	      38.60194
       6.54002	      35.49741	      25.77443	      22.61019	      18.30308	      18.49072	      22.98547	      26.72967	      38.38871
       6.65680	      34.95156	      24.70831	      21.92788	      18.08133	      18.14104	      23.10487	      27.46316	      38.32901
       6.77359	      34.96861	      26.16676	      21.99611	      18.66983	      18.42249	      23.03664	      27.26699	      39.20749
       6.89038	      36.19678	      25.44180	      22.23492	      17.82546	      18.65277	      22.43109	      27.90666	      39.46336
       7.00716	      35.37800	      25.80001	      23.28398	      17.63783	      19.30950	      24.14540	      27.28405	      38.32901
       7.12395	      36.10296	      26.09853	      22.86606	      17.90222	      18.53337	      22.95135	      27.23287	      38.51665
       7.24074	      36.20531	      25.24563	      21.78289	      17.48431	      19.56536	      23.31809	      27.16464	      39.51453
       7.35752	      35.61681	      24.95565	      22.22639	      17.49284	      19.78712	      23.07076	      27.19876	      37.56141
       7.47431	      34.96008	      25.60385	      22.37138	      18.05574	      18.37132	      23.90659	      26.82348	      37.82581
       7.59109	      34.82362	      25.64649	      22.39697	      18.09839	      19.87241	      23.84689	      26.84054	      39.08809
       7.70788	      35.36947	      25.68914	      22.88312	      17.84252	      18.91717	      23.24133	      26.84907	      37.88551
       7.82467	      35.75328	      25.78296	      22.10699	      18.42249	      18.15809	      22.99400	      26.72114	      37.87698
       7.94145	      34.76392	      26.29469	      22.00464	      18.50778	      18.90011	      24.56332	      26.67849	      37.66376
       8.05824	      35.73622	      25.42474	      22.81489	      19.07069	      18.91717	      24.10276	      28.03459	      38.48253
       8.17502	      36.12002	      25.97059	      21.98758	      17.79988	      18.48219	      22.75519	      27.61668	      38.47400
       8.29181	      35.61681	      25.04947	      22.84900	      18.11545	      18.82335	      23.74454	      27.08788	      38.55929
       8.40860	      35.54005	      25.87677	      21.60378	      19.07922	      18.78070	      23.38633	      27.20729	      39.34396
       8.52538	      35.36094	      25.42474	      22.48226	      18.37984	      18.53337	      23.60808	      26.33734	      38.94310
       8.64217	      34.79803	      26.23499	      22.09846	      17.48431	      18.40543	      23.69337	      27.31816	      38.28637
       8.75895	      34.60187	      26.43115	      22.26051	      17.81693	      18.58454	      24.23922	      26.38851	      39.27572
       8.87574	      35.02832	      24.17099	      21.73171	      17.83399	      19.26685	      23.53132	      27.50580	      38.56782
       8.99253	      34.75539	      25.47591	      22.02170	      16.80199	      19.37773	      22.82342	      27.24140	      38.49959
       9.10931	      35.46329	      26.43968	      21.97052	      18.29456	      18.51631	      23.01105	      27.36934	      38.50812
       9.22610	      34.90038	      26.20940	      22.05581	      18.06427	      18.64424	      23.61661	      27.46316	      38.74693
       9.34288	      35.37800	      26.32881	      22.76371	      18.49072	      18.78923	      22.75519	      27.22434	      37.63817
       9.45967	      34.66157	      24.96418	      22.64431	      18.33720	      18.03016	      24.58038	      26.35439	      38.48253
       9.57646	      34.32895	      25.80854	      22.29462	      18.10692	      18.89158	      23.37780	      27.30111	      38.62753
       9.69324	      36.40147	      25.75737	      22.32021	      17.92781	      18.92570	      23.22428	      27.59109	      38.61900
       9.81003	      35.30977	      25.92795	      22.46520	      18.10692	      18.78923	      24.48656	      27.44610	      39.50600
       9.92681	      35.53152	      25.63796	      22.65284	      18.02163	      18.92570	      23.68484	      26.95142	      37.70640
      10.04360	      35.94091	      24.98977	      22.72107	      18.37984	      18.82335	      22.94282	      26.76378	      39.55718
      10.16039	      35.05390	      25.67208	      22.08993	      18.47366	      19.07922	      23.59955	      26.89172	      38.42283
      10.27717	      36.04326	      25.34798	      22.38844	      17.94487	      18.61013	      23.73601	      26.63585	      37.64670
      10.39396	      34.92597	      25.50150	      22.25198	      18.32867	      18.63571	      23.69337	      26.73820	      39.30984
      10.51074	      35.61681	      26.09853	      22.04729	      18.22632	      18.98540	      23.45456	      27.64226	      38.78957
      10.62753	      34.07307	      26.55056	      22.32874	      18.43955	      19.54831	      23.71043	      26.84054	      38.15843
      10.74432	      34.96861	      26.33734	      22.87459	      18.14104	      18.13251	      23.13899	      26.84054	      38.90898
      10.86110	      34.51658	      25.45886	      21.80847	      17.99604	      19.33508	      23.18163	      26.86613	      38.87486
      10.97789	      35.54005	      24.86183	      22.08140	      17.77429	      19.14745	      23.24133	      28.07724	      39.05397
      11.09467	      34.21807	      25.62943	      22.92576	      17.89370	      17.86811	      23.49720	      27.05377	      38.81516
      11.21146	      35.18184	      26.21793	      22.47373	      17.80841	      18.80629	      23.57396	      27.36081	      38.47400
      11.32825	      35.92385	      25.58679	      22.13257	      18.61013	      18.67836	      23.73601	      27.28405	      38.54224
      11.44503	      35.09655	      25.46739	      22.37991	      17.85105	      19.66771	      24.09423	      27.01112	      38.91751
      11.56182	      35.25860	      25.39063	      21.99611	      18.15809	      19.63360	      23.76160	      26.92583	      39.14779
      11.67861	      34.72128	      26.54203	      22.87459	      18.55895	      18.32014	      23.99188	      27.17317	      38.60194
      11.79539	      35.86415	      26.32881	      22.17522	      18.11545	      18.58454	      24.29039	      26.85760	      38.82369
      11.91218	      35.07949	      26.15823	      22.51638	      18.47366	      18.56748	      23.84689	      27.56550	      38.86633
      12.02896	      35.34389	      24.88742	      22.14110	      17.81693	      18.60160	      23.32662	      27.08788	      38.62753
      12.14575	      36.27354	      25.58679	      22.32021	      18.69542	      19.38626	      24.02600	      27.07082	      38.78104
      12.26254	      35.36947	      25.47591	      22.73813	      18.33720	      18.68689	      23.13899	      26.86613	      38.38018
      12.37932	      36.10296	      24.86183	      22.55049	      17.72312	      19.26685	      23.25839	      27.00259	      38.93457
      12.49611	      36.12002	      25.00682	      22.04729	      17.97046	      18.62718	      23.42897	      27.48021	      38.41430
      12.61289	      34.96861	      25.64649	      22.66990	      17.74870	      18.77217	      23.76160	      27.26699	      38.95163
      12.72968	      34.40570	      25.17740	      22.43109	      17.94487	      18.61865	      23.59102	      26.10706	      39.01133
      12.84647	      35.24154	      25.50150	      22.26904	      17.99604	      20.00887	      23.45456	      26.74673	      38.20961
      12.96325	      34.89185	      24.91301	      21.84259	      18.21779	      18.55895	      23.51426	      27.70197	      38.19255
      13.08004	      34.92597	      25.13476	      22.03876	      17.88517	      18.31161	      23.33515	      27.34375	      38.33754
      13.19682	      35.19036	      24.90448	      22.37138	      18.07280	      18.93423	      24.60596	      27.59962	      38.84075
      13.31361	      36.55499	      26.62732	      22.49079	      18.66983	      18.82335	      23.53985	      27.41198	      38.86633
      13.43040	      35.65946	      25.67208	      22.35433	      17.65489	      19.19862	      23.89806	      26.29469	      38.82369
      13.54718	      34.16689	      26.25205	      22.31168	      18.17515	      18.43102	      23.85542	      26.60173	      37.83434
      13.66397	      34.48246	      25.55268	      21.79995	      18.40543	      19.00246	      24.00894	      26.36292	      38.55077
      13.78075	      35.29271	      25.97059	      21.88523	      18.42249	      19.07922	      23.92365	      27.24140	      38.70428
      13.89754	      35.44623	      25.83413	      21.38203	      18.00457	      18.40543	      23.54838	      27.32669	      38.88339
      14.01433	      35.07949	      25.60385	      22.71254	      18.37132	      18.07280	      23.85542	      27.21582	      38.49106
      14.13111	      35.36947	      25.71472	      22.90018	      18.01310	      18.78070	      24.01747	      26.64438	      38.44842
      14.24790	      35.23301	      25.61238	      22.31168	      18.14104	      19.06216	      23.53132	      26.76378	      38.78957
      14.36468	      35.83004	      26.62732	      22.86606	      17.87664	      18.61865	      23.57396	      27.18170	      38.48253
      14.48147	      34.30336	      25.07505	      22.56755	      18.09839	      18.26044	      24.05158	      26.89172	      38.59341
      14.59826	      35.34389	      25.04094	      22.89165	      18.31161	      19.47155	      22.74666	      26.83201	      38.72987
      14.71504	      34.99420	      25.33945	      21.79995	      17.98751	      18.68689	      23.50573	      26.89172	      39.13926
      14.83183	      34.61040	      25.07505	      22.21786	      17.96193	      18.94275	      23.76160	      27.56550	      38.54224
      14.94861	      34.66157	      25.51856	      23.32662	      17.74018	      19.19862	      23.53985	      27.20729	      37.85992
      15.06540	      34.89185	      25.55268	      22.61872	      18.29456	      18.64424	      23.37780	      26.69555	      38.84075
      15.18219	      35.98355	      24.91301	      22.23492	      17.45019	      18.65277	      23.33515	      27.14758	      38.51665
      15.29897	      35.77886	      25.57826	      22.37138	      18.55895	      18.20074	      23.10487	      27.26699	      38.55929
      15.41576	      35.11361	      25.33945	      23.11340	      18.25191	      18.28603	      23.45456	      26.98553	      38.62753
      15.53254	      34.98567	      25.33092	      22.03876	      17.77429	      18.39690	      24.21363	      27.32669	      37.74052
      15.64933	      35.46329	      25.84266	      21.51849	      18.61865	      19.17303	      23.45456	      26.89172	      38.56782
      15.76612	      35.95797	      25.90236	      21.57819	      18.05574	      18.15809	      23.09634	      26.91730	      39.71923
      15.88290	      34.98567	      25.91089	      21.62084	      17.19432	      18.23485	      23.54838	      27.24140	      38.24372
      15.99969	      35.30977	      25.54415	      22.50785	      18.96834	      18.90864	      24.29892	      27.83843	      39.08809
      16.11647	      36.00914	      26.03029	      23.12193	      17.87664	      19.53978	      23.56543	      27.15611	      38.21814
      16.23326	      36.40147	      26.08147	      22.21786	      18.11545	      18.93423	      24.02600	      27.34375	      39.53159
      16.35005	      34.67010	      26.77231	      22.95135	      17.67194	      18.84041	      24.34157	      27.54844	      39.61688
      16.46683	      34.92597	      25.74031	      21.97052	      17.79135	      18.53337	      23.71043	      27.39492	      39.63394
      16.58362	      35.19036	      26.65291	      22.25198	      17.88517	      18.31161	      23.72748	      27.51433	      38.38018
      16.70041	      35.02832	      24.62302	      22.78930	      18.02163	      18.84041	      23.71043	      27.53992	      38.31195
      16.81719	      35.54005	      26.72114	      22.15816	      18.48219	      18.55895	      22.22639	      27.65079	      38.96015
      16.93398	      36.33324	      26.28616	      22.40550	      18.06427	      18.36279	      23.93218	      27.30111	      38.41430
      17.05076	      35.64240	      25.40768	      22.80636	      17.56960	      18.37132	      23.12193	      26.44821	      38.66164
      17.16755	      35.00273	      25.10917	      22.44814	      17.82546	      19.11333	      23.93218	      26.61026	      37.97080
      17.28433	      34.84068	      25.48444	      21.83406	      18.14104	      18.56748	      23.70190	      26.60173	      38.05609
      17.40112	      35.87268	      25.51003	      21.64643	      18.03016	      18.83188	      23.59102	      26.83201	      38.45695
      17.51791	      34.67010	      25.81707	      22.43962	      17.27108	      19.07922	      23.07928	      25.96206	      38.82369
      17.63469	      36.41000	      25.71472	      23.03664	      18.27750	      18.54189	      23.97482	      27.14758	      38.80663
      17.75148	      35.96650	      25.36504	      22.39697	      18.16662	      19.00246	      23.82130	      27.79578	      38.41430
      17.86827	      35.05390	      26.54203	      22.49932	      18.50778	      19.09628	      23.48014	      26.93436	      38.08167
      17.98505	      35.25007	      25.39063	      22.75519	      17.91928	      19.24980	      23.65072	      26.88319	      39.43777
      18.10184	      35.14772	      25.12623	      22.58461	      18.27750	      19.13039	      23.65925	      28.39281	      38.67870
      18.21862	      35.69357	      25.67208	      22.23492	      17.72312	      18.83188	      23.78719	      27.09641	      38.49106
      18.33541	      35.67651	      26.06441	      23.32662	      18.92570	      18.51631	      23.55691	      26.74673	      38.56782
      18.45220	      36.09443	      24.88742	      22.33727	      19.09628	      19.13892	      23.74454	      26.92583	      37.81728
      18.56898	      36.19678	      26.04735	      21.79995	      18.26044	      18.31161	      23.46309	      26.64438	      38.48253
      18.68577	      35.40359	      25.95354	      21.92788	      17.76576	      18.28603	      22.62725	      27.42904	      37.94521
      18.80255	      36.36736	      25.79148	      22.52490	      18.20074	      18.78070	      23.98335	      26.62732	      37.82581
      18.91934	      35.19036	      26.14970	      22.21786	      17.94487	      18.56748	      23.89806	      26.58467	      38.90045
      19.03613	      36.06884	      25.88530	      23.30104	      18.54189	      17.97898	      23.08781	      26.76378	      38.66164
      19.15291	      36.06032	      25.93648	      21.79995	      18.78923	      18.78923	      23.67631	      27.20729	      38.44842
      19.26970	      36.26501	      26.32028	      21.78289	      17.64636	      18.37132	      23.67631	      25.59532	      39.42924
      19.38648	      35.32683	      25.33092	      22.76371	      18.84041	      19.19009	      23.61661	      27.57403	      38.92604
      19.50327	      35.30977	      25.87677	      22.66137	      18.12398	      18.96834	      24.08570	      27.27552	      37.86845
      19.62006	      36.56352	      26.46527	      22.14110	      18.42249	      18.75512	      23.69337	      26.97701	      38.46547
      19.73684	      35.58270	      25.92795	      21.68054	      18.20927	      18.47366	      23.66778	      27.04524	      38.76399
      19.85363	      35.22448	      26.65291	      22.33727	      18.69542	      19.01951	      23.85542	      27.39492	      38.43136
      19.97042	      35.49741	      25.79148	      22.44814	      18.93423	      18.18368	      23.85542	      27.27552	      39.22455
      20.08720	      35.24154	      25.66355	      22.36285	      17.49284	      18.78070	      24.46097	      27.90666	      37.72346
      20.20399	      35.77033	      25.86824	      22.52490	      17.52695	      19.09628	      22.80636	      27.77020	      38.74693
      20.32077	      35.62534	      26.09000	      22.78077	      18.67836	      18.71247	      23.71043	      27.00259	      38.62753
      20.43756	      35.20742	      25.78296	      22.16669	      17.62930	      18.90011	      23.85542	      28.05165	      37.45906
      20.55434	      35.60828	      26.37145	      22.40550	      18.25191	      18.66983	      23.24986	      26.59320	      38.42283
      20.67113	      36.00061	      24.81919	      21.89376	      18.26897	      19.19009	      23.34368	      27.02818	      39.06250
      20.78792	      35.87268	      26.20087	      22.47373	      18.12398	      19.06216	      22.38844	      27.10494	      39.35248
      20.90470	      35.35242	      25.79148	      22.61872	      18.67836	      18.57601	      23.65072	      26.94289	      38.27784
      21.02149	      35.84709	      26.47380	      22.40550	      18.13251	      19.47155	      24.63155	      26.76378	      37.88551
      21.13828	      35.01979	      25.55268	      22.48226	      18.48219	      18.60160	      24.24775	      27.29258	      38.92604
      21.25506	      35.19889	      25.71472	      22.30315	      18.02163	      18.82335	      23.19016	      27.19023	      39.93245
      21.37185	      36.14561	      25.85972	      22.43109	      18.22632	      18.16662	      24.07717	      27.86402	      38.33754
      21.48863	      35.59975	      25.56973	      22.32021	      17.73165	      18.22632	      24.19658	      27.63373	      38.27784
      21.60542	      35.90680	      26.28616	      22.64431	      17.87664	      18.51631	      23.49720	      27.50580	      37.80875
      21.72220	      35.03685	      25.85119	      22.28609	      17.56107	      18.88305	      23.65072	      26.84907	      38.05609
      21.83899	      35.30124	      26.22646	      22.40550	      18.24338	      18.46513	      23.16457	      26.98553	      38.00491
      21.95578	      35.49741	      26.32881	      22.43962	      18.70394	      18.15809	      23.78719	      27.76167	      38.59341
      22.07256	      35.13919	      25.91942	      21.44173	      17.70606	      19.29244	      23.98335	      27.07082	      38.67870
      22.18935	      34.37159	      25.94501	      22.81489	      17.55254	      18.84041	      22.87459	      26.93436	      37.86845
      22.30614	      36.17119	      25.17740	      22.08140	      17.05786	      18.80629	      23.35221	      27.54844	      38.37166
      22.42292	      35.88121	      26.36292	      22.34580	      17.90222	      18.01310	      23.72748	      27.27552	      38.70428
      22.53971	      34.78098	      25.20299	      22.69548	      18.42249	      18.49072	      23.26692	      27.27552	      38.75546
      22.65649	      35.59975	      26.56762	      23.45456	      18.26897	      18.95128	      23.02811	      27.37786	      38.39724
      22.77328	      34.84921	      25.68061	      22.93429	      17.56107	      18.66983	      23.47161	      26.84054	      39.42924
      22.89007	      35.29271	      25.56120	      22.71254	      18.37984	      18.96834	      23.79572	      26.82348	      39.83010
      23.00685	      34.42276	      26.31175	      22.71254	      18.41396	      18.87452	      24.04305	      27.88107	      38.84075
      23.12364	      35.39506	      25.20299	      21.91082	      18.10692	      17.92781	      24.03452	      27.64226	      38.22667
      23.24042	      35.38653	      25.66355	      22.55049	      18.43102	      18.98540	      23.53132	      27.06230	      38.35460
      23.35721	      35.37800	      26.44821	      22.01317	      19.10480	      18.49072	      23.23281	      27.30964	      37.53582
      23.47400	      34.23513	      24.96418	      22.62725	      17.56107	      18.96834	      23.87247	      27.55697	      37.98785
      23.59078	      33.97073	      26.09000	      22.65284	      18.00457	      18.84894	      23.58249	      26.95995	      39.94951
      23.70757	      34.84068	      25.57826	      22.26051	      17.81693	      18.65277	      24.09423	      27.12200	      38.84928
      23.82435	      35.36947	      26.10706	      21.99611	      18.29456	      18.78070	      23.25839	      27.30964	      39.32690
      23.94114	      35.57417	      26.13264	      22.28609	      18.48219	      18.70394	      23.52279	      26.59320	      39.03691
      24.05793	      34.37159	      25.74031	      22.03876	      18.48219	      18.61013	      22.52490	      28.00048	      38.36313
      24.17471	      35.22448	      25.41621	      22.63578	      17.85105	      18.78923	      23.36927	      27.74461	      37.38230
      24.29150	      35.71916	      24.98977	      22.90871	      17.80841	      18.72953	      23.94071	      26.41410	      39.07103
      24.40828	      35.02832	      25.80001	      22.80636	      17.68047	      18.92570	      23.19016	      26.89172	      38.61047
      24.52507	      35.07096	      25.65502	      22.39697	      17.76576	      18.85746	      24.08570	      27.53139	      38.59341
      24.64186	      34.23513	      26.31175	      22.45667	      18.03869	      18.03016	      24.31598	      27.60815	      39.18190
      24.75864	      34.65304	      25.33092	      22.57608	      17.90222	      18.99393	      24.35863	      27.21582	      38.07314
      24.87543	      35.12214	      26.18382	      21.85965	      17.79135	      18.18368	      22.89165	      26.51644	      38.79810
      24.99221	      35.01126	      25.27122	      22.46520	      18.37132	      18.84041	      23.90659	      27.65079	      38.50812
      25.10900	      34.91744	      25.76590	      23.31809	      17.80841	      18.73806	      23.97482	      27.31816	      39.10514
      25.22579	      35.82151	      25.57826	      22.89165	      17.89370	      18.66130	      23.63367	      27.10494	      38.78104
      25.34257	      35.44623	      25.68061	      22.06434	      17.91075	      18.69542	      23.63367	      27.25846	      37.38230
      25.45936	      35.23301	      25.69767	      23.56543	      18.07280	      18.63571	      24.18805	      27.93225	      37.84286
      25.57615	      34.66157	      26.37145	      22.33727	      18.02163	      19.35214	      23.51426	      26.90025	      37.98785
      25.69293	      36.60617	      25.78296	      22.30315	      18.49072	      19.30097	      23.70190	      27.24140	      37.88551
      25.80972	      34.73833	      25.08358	      22.82342	      18.72953	      18.47366	      22.17522	      26.78937	      39.18190
      25.92650	      35.25860	      25.31386	      23.05370	      17.66341	      18.29456	      23.86395	      27.76167	      39.13073
      26.04329	      34.99420	      25.59532	      22.51638	      17.82546	      18.79776	      23.31809	      25.72325	      38.19255
      26.16007	      34.92597	      25.24563	      22.06434	      17.72312	      19.13039	      23.40339	      27.46316	      38.94310
      26.27686	      35.54858	      25.94501	      22.20933	      18.14956	      18.00457	      23.80424	      26.96848	      38.70428
      26.39365	      34.75539	      25.79148	      22.20933	      18.29456	      18.56748	      23.19869	      27.94930	      38.89192
      26.51043	      35.75328	      25.71472	      22.49932	      18.58454	      18.83188	      24.54626	      27.01965	      38.62753
      26.62722	      34.80656	      25.73178	      21.94494	      17.13462	      18.85746	      24.58038	      26.56762	      38.66164
      26.74401	      35.45476	      26.06441	      22.95135	      17.55254	      18.74659	      22.55902	      26.51644	      39.59129
      26.86079	      35.34389	      25.74884	      22.88312	      18.75512	      18.57601	      23.84689	      26.66996	      38.12432
      26.97758	      35.42065	      26.46527	      22.72960	      17.83399	      19.03657	      22.95988	      26.73820	      37.80875
      27.09436	      35.76180	      26.90025	      22.26904	      17.58665	      18.95981	      23.36074	      27.94930	      39.29278
      27.21115	      34.86627	      25.84266	      22.43962	      17.57813	      19.01951	      23.19016	      27.08788	      39.26719
      27.32793	      34.43129	      25.50150	      22.28609	      17.38196	      18.75512	      23.15605	      26.12411	      38.04756
      27.44472	      35.70210	      25.67208	      22.52490	      18.26897	      18.50778	      23.29251	      26.41410	      38.43136
      27.56151	      35.20742	      26.36292	      22.79783	      17.43313	      17.96193	      23.11340	      27.27552	      38.18402
      27.67829	      34.99420	      25.50150	      22.89165	      18.03016	      18.93423	      23.30957	      26.51644	      39.77040
      27.79508	      35.39506	      25.25416	      22.29462	      18.71247	      18.55895	      23.65925	      26.80643	      38.70428
      27.91187	      36.04326	      26.13264	      22.32021	      17.85105	      19.20715	      23.83836	      27.07935	      38.21814
      28.02865	      35.29271	      25.69767	      22.04729	      18.30308	      19.31803	      23.78719	      26.88319	      37.39936
      28.14544	      34.90038	      25.45033	      22.54196	      17.67194	      18.29456	      23.36074	      26.58467	      37.90257
      28.26222	      34.66157	      26.36292	      22.55049	      17.56960	      19.17303	      23.51426	      27.45463	      38.82369
      28.37901	      36.04326	      25.85972	      21.76583	      18.02163	      19.51419	      23.39486	      27.36081	      38.62753
      28.49580	      34.67010	      25.69767	      22.66990	      18.16662	      18.66983	      24.38421	      26.59320	      38.79810
      28.61258	      35.21595	      25.43327	      22.37991	      18.27750	      18.48219	      23.08781	      26.95995	      38.09873
      28.72937	      34.57628	      25.75737	      22.61019	      17.83399	      18.48219	      23.56543	      27.48874	      38.63605
      28.84615	      35.65093	      25.68914	      22.92576	      18.16662	      18.95981	      22.63578	      27.52286	      39.01133
      28.96294	      34.79803	      25.74884	      22.56755	      17.97046	      18.73806	      23.36927	      27.48874	      38.56782
      29.07973	      34.96008	      25.37357	      22.26904	      17.81693	      18.79776	      23.02811	      27.28405	      38.62753
      29.19651	      36.00914	      25.89383	      21.04087	      18.27750	      18.16662	      23.13899	      26.51644	      37.45053
      29.31330	      35.63387	      25.32239	      22.35433	      17.79135	      18.56748	      23.65072	      27.30964	      38.63605
      29.43008	      34.96008	      25.39063	      22.45667	      18.08986	      19.27538	      23.54838	      27.03671	      38.77252
      29.54687	      35.07096	      25.80854	      22.55049	      18.31161	      18.55895	      23.66778	      25.56120	      38.93457
      29.66366	      35.88121	      26.32881	      23.03664	      18.00457	      18.93423	      24.00041	      26.79790	      39.32690

Monitor Diode	1568483.87
